key_resp_beginning.keys,key_resp_beginning.rt,participant,session,date,expName,psychopyVersion,OS,frameRate,key_resp_instr_behavior.keys,key_resp_instr_behavior.rt,key_resp_instr_scales.keys,key_resp_instr_scales.rt,key_resp.keys,key_resp.rt,key_resp_instr_STAI_state_2.keys,key_resp_instr_STAI_state_2.rt,slider_STAI_state.response,key_resp_STAI_state.keys,key_resp_STAI_state.rt,trials_STAI_state.thisRepN,trials_STAI_state.thisTrialN,trials_STAI_state.thisN,trials_STAI_state.thisIndex,trials_STAI_state.ran,statement,key_resp_STAI_2.keys,key_resp_STAI_2.rt,slider_STAI_trait.response,key_resp_STAI_trait.keys,key_resp_STAI_trait.rt,trials_STAI_trait.thisRepN,trials_STAI_trait.thisTrialN,trials_STAI_trait.thisN,trials_STAI_trait.thisIndex,trials_STAI_trait.ran,STAILoop.thisRepN,STAILoop.thisTrialN,STAILoop.thisN,STAILoop.thisIndex,STAILoop.ran,OrderofScales.thisRepN,OrderofScales.thisTrialN,OrderofScales.thisN,OrderofScales.thisIndex,OrderofScales.ran,nRepsPANAS,nRepsBDI,nRepsSHAPS,nRepsSTAI,key_resp_BDI_1.keys,key_resp_BDI_1.rt,key_resp_BDI_2.keys,key_resp_BDI_2.rt,key_resp_BDI_trials.keys,key_resp_BDI_trials.rt,trials_BDI.thisRepN,trials_BDI.thisTrialN,trials_BDI.thisN,trials_BDI.thisIndex,trials_BDI.ran,Title,statement_1,statement_2,statement_3,statement_4,BDILoop.thisRepN,BDILoop.thisTrialN,BDILoop.thisN,BDILoop.thisIndex,BDILoop.ran,key_resp_PANAS_1.keys,key_resp_PANAS_1.rt,key_resp_PANAS_2.keys,key_resp_PANAS_2.rt,slider_PANAS.response,key_resp_PANAS.keys,key_resp_PANAS.rt,trials_PANAS.thisRepN,trials_PANAS.thisTrialN,trials_PANAS.thisN,trials_PANAS.thisIndex,trials_PANAS.ran,adjective,posneg,panasnum,PANASLoop.thisRepN,PANASLoop.thisTrialN,PANASLoop.thisN,PANASLoop.thisIndex,PANASLoop.ran,key_resp_Instr_SHAPS.keys,key_resp_Instr_SHAPS.rt,key_resp_instr_SHAPS_2.keys,key_resp_instr_SHAPS_2.rt,slider_SHAPS.response,key_resp_SHAPS.keys,key_resp_SHAPS.rt,trials_SHAPS.thisRepN,trials_SHAPS.thisTrialN,trials_SHAPS.thisN,trials_SHAPS.thisIndex,trials_SHAPS.ran,SHAPSLoop.thisRepN,SHAPSLoop.thisTrialN,SHAPSLoop.thisN,SHAPSLoop.thisIndex,SHAPSLoop.ran,key_resp_instr_1.keys,key_resp_instr_1.rt,key_resp_instr_2.keys,key_resp_instr_2.rt,key_resp_instr_3.keys,key_resp_instr_3.rt,key_resp_instr_3b.keys,key_resp_instr_3b.rt,key_resp_instr_4.keys,key_resp_instr_4.rt,key_resp_instr_5.keys,key_resp_instr_5.rt,key_resp_instr_practice.keys,key_resp_instr_practice.rt,key_resp_trial.keys,key_resp_trial.corr,key_resp_repeat_practice.keys,key_resp_end_experiment.keys,Practice_A.thisRepN,Practice_A.thisTrialN,Practice_A.thisN,Practice_A.thisIndex,Practice_A.ran,Trial_nr,Block_nr,Block_cond,Symbol_left,Symbol_right,Highlighted,Outcome,corrAns,Image,Trial_within_block,Trial_cond,Block_value,key_ass,key_resp_trial.rt,key_resp_repeat_practice.rt,key_resp_instr_main_a.keys,key_resp_instr_main_a.rt,key_resp_pause.keys,Main_A.thisRepN,Main_A.thisTrialN,Main_A.thisN,Main_A.thisIndex,Main_A.ran,key_resp_pause.rt,Group_A.thisRepN,Group_A.thisTrialN,Group_A.thisN,Group_A.thisIndex,Group_A.ran,key_resp_memory.keys,key_resp_memory.rt,memory_loop.thisRepN,memory_loop.thisTrialN,memory_loop.thisN,memory_loop.thisIndex,memory_loop.ran,Memory_cond,Phase,key_resp_end.keys,key_resp_end.rt
space,3.853,10,001,2023-05-08_11h52.19.380,Experiment_Tuerk,2022.2.4,MacIntel,62.5,,,,,,,,,,,,,,,,,,,,,,,,,,,,,,,,,,,,,,,,,,,,,,,,,,,,,,,,,,,,,,,,,,,,,,,,,,,,,,,,,,,,,,,,,,,,,,,,,,,,,,,,,,,,,,,,,,,,,,,,,,,,,,,,,,,,,,,,,,,,,,,,,,,,,,,,,,,,,,,,,,
,,10,001,2023-05-08_11h52.19.380,Experiment_Tuerk,2022.2.4,MacIntel,62.5,space,19.369,,,,,,,,,,,,,,,,,,,,,,,,,,,,,,,,,,,,,,,,,,,,,,,,,,,,,,,,,,,,,,,,,,,,,,,,,,,,,,,,,,,,,,,,,,,,,,,,,,,,,,,,,,,,,,,,,,,,,,,,,,,,,,,,,,,,,,,,,,,,,,,,,,,,,,,,,,,,,,,,
,,10,001,2023-05-08_11h52.19.380,Experiment_Tuerk,2022.2.4,MacIntel,62.5,,,space,5.914,,,,,,,,,,,,,,,,,,,,,,,,,,,,,,,,,,,,,,,,,,,,,,,,,,,,,,,,,,,,,,,,,,,,,,,,,,,,,,,,,,,,,,,,,,,,,,,,,,,,,,,,,,,,,,,,,,,,,,,,,,,,,,,,,,,,,,,,,,,,,,,,,,,,,,,,,,,,,,
,,10,001,2023-05-08_11h52.19.380,Experiment_Tuerk,2022.2.4,MacIntel,62.5,,,,,space,17.366,space,5.634,2,return,8.804,0,0,0,0,1,1. I feel calm.,,,,,,,,,,,,,,,,,,,,,,,,,,,,,,,,,,,,,,,,,,,,,,,,,,,,,,,,,,,,,,,,,,,,,,,,,,,,,,,,,,,,,,,,,,,,,,,,,,,,,,,,,,,,,,,,,,,,,,,,,,,,,,,,,,,,,,,,,,,,,,,,,
,,10,001,2023-05-08_11h52.19.380,Experiment_Tuerk,2022.2.4,MacIntel,62.5,,,,,,,,,4,return,6.896,0,1,1,1,1,2. I feel secure.,,,,,,,,,,,,,,,,,,,,,,,,,,,,,,,,,,,,,,,,,,,,,,,,,,,,,,,,,,,,,,,,,,,,,,,,,,,,,,,,,,,,,,,,,,,,,,,,,,,,,,,,,,,,,,,,,,,,,,,,,,,,,,,,,,,,,,,,,,,,,,,,,
,,10,001,2023-05-08_11h52.19.380,Experiment_Tuerk,2022.2.4,MacIntel,62.5,,,,,,,,,2,return,8.674,0,2,2,2,1,3. I am tense.,,,,,,,,,,,,,,,,,,,,,,,,,,,,,,,,,,,,,,,,,,,,,,,,,,,,,,,,,,,,,,,,,,,,,,,,,,,,,,,,,,,,,,,,,,,,,,,,,,,,,,,,,,,,,,,,,,,,,,,,,,,,,,,,,,,,,,,,,,,,,,,,,
,,10,001,2023-05-08_11h52.19.380,Experiment_Tuerk,2022.2.4,MacIntel,62.5,,,,,,,,,2,return,22.594,0,3,3,3,1,4. I feel strained. ,,,,,,,,,,,,,,,,,,,,,,,,,,,,,,,,,,,,,,,,,,,,,,,,,,,,,,,,,,,,,,,,,,,,,,,,,,,,,,,,,,,,,,,,,,,,,,,,,,,,,,,,,,,,,,,,,,,,,,,,,,,,,,,,,,,,,,,,,,,,,,,,,
,,10,001,2023-05-08_11h52.19.380,Experiment_Tuerk,2022.2.4,MacIntel,62.5,,,,,,,,,3,return,21.858,0,4,4,4,1,5. I feel at ease.,,,,,,,,,,,,,,,,,,,,,,,,,,,,,,,,,,,,,,,,,,,,,,,,,,,,,,,,,,,,,,,,,,,,,,,,,,,,,,,,,,,,,,,,,,,,,,,,,,,,,,,,,,,,,,,,,,,,,,,,,,,,,,,,,,,,,,,,,,,,,,,,,
,,10,001,2023-05-08_11h52.19.380,Experiment_Tuerk,2022.2.4,MacIntel,62.5,,,,,,,,,1,return,5.141,0,5,5,5,1,6. I feel upset.,,,,,,,,,,,,,,,,,,,,,,,,,,,,,,,,,,,,,,,,,,,,,,,,,,,,,,,,,,,,,,,,,,,,,,,,,,,,,,,,,,,,,,,,,,,,,,,,,,,,,,,,,,,,,,,,,,,,,,,,,,,,,,,,,,,,,,,,,,,,,,,,,
,,10,001,2023-05-08_11h52.19.380,Experiment_Tuerk,2022.2.4,MacIntel,62.5,,,,,,,,,1,return,22.028,0,6,6,6,1,7. I am presently worrying over possible misfortunes.,,,,,,,,,,,,,,,,,,,,,,,,,,,,,,,,,,,,,,,,,,,,,,,,,,,,,,,,,,,,,,,,,,,,,,,,,,,,,,,,,,,,,,,,,,,,,,,,,,,,,,,,,,,,,,,,,,,,,,,,,,,,,,,,,,,,,,,,,,,,,,,,,
,,10,001,2023-05-08_11h52.19.380,Experiment_Tuerk,2022.2.4,MacIntel,62.5,,,,,,,,,2,return,4.441,0,7,7,7,1,8. I feel satisfied.,,,,,,,,,,,,,,,,,,,,,,,,,,,,,,,,,,,,,,,,,,,,,,,,,,,,,,,,,,,,,,,,,,,,,,,,,,,,,,,,,,,,,,,,,,,,,,,,,,,,,,,,,,,,,,,,,,,,,,,,,,,,,,,,,,,,,,,,,,,,,,,,,
,,10,001,2023-05-08_11h52.19.380,Experiment_Tuerk,2022.2.4,MacIntel,62.5,,,,,,,,,1,return,5.743,0,8,8,8,1,9. I feel frightened.,,,,,,,,,,,,,,,,,,,,,,,,,,,,,,,,,,,,,,,,,,,,,,,,,,,,,,,,,,,,,,,,,,,,,,,,,,,,,,,,,,,,,,,,,,,,,,,,,,,,,,,,,,,,,,,,,,,,,,,,,,,,,,,,,,,,,,,,,,,,,,,,,
,,10,001,2023-05-08_11h52.19.380,Experiment_Tuerk,2022.2.4,MacIntel,62.5,,,,,,,,,4,return,11.844,0,9,9,9,1,10. I feel comfortable.,,,,,,,,,,,,,,,,,,,,,,,,,,,,,,,,,,,,,,,,,,,,,,,,,,,,,,,,,,,,,,,,,,,,,,,,,,,,,,,,,,,,,,,,,,,,,,,,,,,,,,,,,,,,,,,,,,,,,,,,,,,,,,,,,,,,,,,,,,,,,,,,,
,,10,001,2023-05-08_11h52.19.380,Experiment_Tuerk,2022.2.4,MacIntel,62.5,,,,,,,,,3,return,17.542,0,10,10,10,1,11. I feel self-confident.,,,,,,,,,,,,,,,,,,,,,,,,,,,,,,,,,,,,,,,,,,,,,,,,,,,,,,,,,,,,,,,,,,,,,,,,,,,,,,,,,,,,,,,,,,,,,,,,,,,,,,,,,,,,,,,,,,,,,,,,,,,,,,,,,,,,,,,,,,,,,,,,,
,,10,001,2023-05-08_11h52.19.380,Experiment_Tuerk,2022.2.4,MacIntel,62.5,,,,,,,,,2,return,5.573,0,11,11,11,1,12. I feel nervous.,,,,,,,,,,,,,,,,,,,,,,,,,,,,,,,,,,,,,,,,,,,,,,,,,,,,,,,,,,,,,,,,,,,,,,,,,,,,,,,,,,,,,,,,,,,,,,,,,,,,,,,,,,,,,,,,,,,,,,,,,,,,,,,,,,,,,,,,,,,,,,,,,
,,10,001,2023-05-08_11h52.19.380,Experiment_Tuerk,2022.2.4,MacIntel,62.5,,,,,,,,,2,return,18.359,0,12,12,12,1,13. I am jittery.,,,,,,,,,,,,,,,,,,,,,,,,,,,,,,,,,,,,,,,,,,,,,,,,,,,,,,,,,,,,,,,,,,,,,,,,,,,,,,,,,,,,,,,,,,,,,,,,,,,,,,,,,,,,,,,,,,,,,,,,,,,,,,,,,,,,,,,,,,,,,,,,,
,,10,001,2023-05-08_11h52.19.380,Experiment_Tuerk,2022.2.4,MacIntel,62.5,,,,,,,,,1,return,5.326,0,13,13,13,1,14. I feel indecisive.,,,,,,,,,,,,,,,,,,,,,,,,,,,,,,,,,,,,,,,,,,,,,,,,,,,,,,,,,,,,,,,,,,,,,,,,,,,,,,,,,,,,,,,,,,,,,,,,,,,,,,,,,,,,,,,,,,,,,,,,,,,,,,,,,,,,,,,,,,,,,,,,,
,,10,001,2023-05-08_11h52.19.380,Experiment_Tuerk,2022.2.4,MacIntel,62.5,,,,,,,,,3,return,34.486,0,14,14,14,1,15. I don't feel calm.,,,,,,,,,,,,,,,,,,,,,,,,,,,,,,,,,,,,,,,,,,,,,,,,,,,,,,,,,,,,,,,,,,,,,,,,,,,,,,,,,,,,,,,,,,,,,,,,,,,,,,,,,,,,,,,,,,,,,,,,,,,,,,,,,,,,,,,,,,,,,,,,,
,,10,001,2023-05-08_11h52.19.380,Experiment_Tuerk,2022.2.4,MacIntel,62.5,,,,,,,,,3,return,5.709,0,15,15,15,1,16. I am relaxed.,,,,,,,,,,,,,,,,,,,,,,,,,,,,,,,,,,,,,,,,,,,,,,,,,,,,,,,,,,,,,,,,,,,,,,,,,,,,,,,,,,,,,,,,,,,,,,,,,,,,,,,,,,,,,,,,,,,,,,,,,,,,,,,,,,,,,,,,,,,,,,,,,
,,10,001,2023-05-08_11h52.19.380,Experiment_Tuerk,2022.2.4,MacIntel,62.5,,,,,,,,,4,return,33.665,0,16,16,16,1,17. I feel content.,,,,,,,,,,,,,,,,,,,,,,,,,,,,,,,,,,,,,,,,,,,,,,,,,,,,,,,,,,,,,,,,,,,,,,,,,,,,,,,,,,,,,,,,,,,,,,,,,,,,,,,,,,,,,,,,,,,,,,,,,,,,,,,,,,,,,,,,,,,,,,,,,
,,10,001,2023-05-08_11h52.19.380,Experiment_Tuerk,2022.2.4,MacIntel,62.5,,,,,,,,,2,return,4.288,0,17,17,17,1,18. I am worried.,,,,,,,,,,,,,,,,,,,,,,,,,,,,,,,,,,,,,,,,,,,,,,,,,,,,,,,,,,,,,,,,,,,,,,,,,,,,,,,,,,,,,,,,,,,,,,,,,,,,,,,,,,,,,,,,,,,,,,,,,,,,,,,,,,,,,,,,,,,,,,,,,
,,10,001,2023-05-08_11h52.19.380,Experiment_Tuerk,2022.2.4,MacIntel,62.5,,,,,,,,,1,return,3.41,0,18,18,18,1,19. I feel confused.,,,,,,,,,,,,,,,,,,,,,,,,,,,,,,,,,,,,,,,,,,,,,,,,,,,,,,,,,,,,,,,,,,,,,,,,,,,,,,,,,,,,,,,,,,,,,,,,,,,,,,,,,,,,,,,,,,,,,,,,,,,,,,,,,,,,,,,,,,,,,,,,,
,,10,001,2023-05-08_11h52.19.380,Experiment_Tuerk,2022.2.4,MacIntel,62.5,,,,,,,,,3,return,10.731,0,19,19,19,1,20. I don't feel upset.,,,,,,,,,,,,,,,,,,,,,,,,,,,,,,,,,,,,,,,,,,,,,,,,,,,,,,,,,,,,,,,,,,,,,,,,,,,,,,,,,,,,,,,,,,,,,,,,,,,,,,,,,,,,,,,,,,,,,,,,,,,,,,,,,,,,,,,,,,,,,,,,,
,,10,001,2023-05-08_11h52.19.380,Experiment_Tuerk,2022.2.4,MacIntel,62.5,,,,,,,,,3,return,21.894,0,20,20,20,1,21. I feel steady.,,,,,,,,,,,,,,,,,,,,,,,,,,,,,,,,,,,,,,,,,,,,,,,,,,,,,,,,,,,,,,,,,,,,,,,,,,,,,,,,,,,,,,,,,,,,,,,,,,,,,,,,,,,,,,,,,,,,,,,,,,,,,,,,,,,,,,,,,,,,,,,,,
,,10,001,2023-05-08_11h52.19.380,Experiment_Tuerk,2022.2.4,MacIntel,62.5,,,,,,,,,4,return,4.525,0,21,21,21,1,22. I feel pleasant.,,,,,,,,,,,,,,,,,,,,,,,,,,,,,,,,,,,,,,,,,,,,,,,,,,,,,,,,,,,,,,,,,,,,,,,,,,,,,,,,,,,,,,,,,,,,,,,,,,,,,,,,,,,,,,,,,,,,,,,,,,,,,,,,,,,,,,,,,,,,,,,,,
,,10,001,2023-05-08_11h52.19.380,Experiment_Tuerk,2022.2.4,MacIntel,62.5,,,,,,,,,,,,,,,,,21. I feel pleasant.,space,14.147,4,return,29.23,0,0,0,0,1,,,,,,,,,,,,,,,,,,,,,,,,,,,,,,,,,,,,,,,,,,,,,,,,,,,,,,,,,,,,,,,,,,,,,,,,,,,,,,,,,,,,,,,,,,,,,,,,,,,,,,,,,,,,,,,,,,,,,,,,,,,,,,,,,,,,,,,
,,10,001,2023-05-08_11h52.19.380,Experiment_Tuerk,2022.2.4,MacIntel,62.5,,,,,,,,,,,,,,,,,22. I feel nervous and restless.,,,2,return,12.907,0,1,1,1,1,,,,,,,,,,,,,,,,,,,,,,,,,,,,,,,,,,,,,,,,,,,,,,,,,,,,,,,,,,,,,,,,,,,,,,,,,,,,,,,,,,,,,,,,,,,,,,,,,,,,,,,,,,,,,,,,,,,,,,,,,,,,,,,,,,,,,,,
,,10,001,2023-05-08_11h52.19.380,Experiment_Tuerk,2022.2.4,MacIntel,62.5,,,,,,,,,,,,,,,,,23. I feel satisfied with myself.,,,4,return,7.642,0,2,2,2,1,,,,,,,,,,,,,,,,,,,,,,,,,,,,,,,,,,,,,,,,,,,,,,,,,,,,,,,,,,,,,,,,,,,,,,,,,,,,,,,,,,,,,,,,,,,,,,,,,,,,,,,,,,,,,,,,,,,,,,,,,,,,,,,,,,,,,,,
,,10,001,2023-05-08_11h52.19.380,Experiment_Tuerk,2022.2.4,MacIntel,62.5,,,,,,,,,,,,,,,,,24. I wish I could be as happy as others seem to be.,,,1,return,8.008,0,3,3,3,1,,,,,,,,,,,,,,,,,,,,,,,,,,,,,,,,,,,,,,,,,,,,,,,,,,,,,,,,,,,,,,,,,,,,,,,,,,,,,,,,,,,,,,,,,,,,,,,,,,,,,,,,,,,,,,,,,,,,,,,,,,,,,,,,,,,,,,,
,,10,001,2023-05-08_11h52.19.380,Experiment_Tuerk,2022.2.4,MacIntel,62.5,,,,,,,,,,,,,,,,,25. I feel like a failure.,,,1,return,4.624,0,4,4,4,1,,,,,,,,,,,,,,,,,,,,,,,,,,,,,,,,,,,,,,,,,,,,,,,,,,,,,,,,,,,,,,,,,,,,,,,,,,,,,,,,,,,,,,,,,,,,,,,,,,,,,,,,,,,,,,,,,,,,,,,,,,,,,,,,,,,,,,,
,,10,001,2023-05-08_11h52.19.380,Experiment_Tuerk,2022.2.4,MacIntel,62.5,,,,,,,,,,,,,,,,,26. I feel rested.,,,4,return,7.685,0,5,5,5,1,,,,,,,,,,,,,,,,,,,,,,,,,,,,,,,,,,,,,,,,,,,,,,,,,,,,,,,,,,,,,,,,,,,,,,,,,,,,,,,,,,,,,,,,,,,,,,,,,,,,,,,,,,,,,,,,,,,,,,,,,,,,,,,,,,,,,,,
,,10,001,2023-05-08_11h52.19.380,Experiment_Tuerk,2022.2.4,MacIntel,62.5,,,,,,,,,,,,,,,,,"27. I am ""calm, cool, and collected"".",,,3,return,8.793,0,6,6,6,1,,,,,,,,,,,,,,,,,,,,,,,,,,,,,,,,,,,,,,,,,,,,,,,,,,,,,,,,,,,,,,,,,,,,,,,,,,,,,,,,,,,,,,,,,,,,,,,,,,,,,,,,,,,,,,,,,,,,,,,,,,,,,,,,,,,,,,,
,,10,001,2023-05-08_11h52.19.380,Experiment_Tuerk,2022.2.4,MacIntel,62.5,,,,,,,,,,,,,,,,,28. I feel that difficulties are piling up so that I cannot overcome them.,,,2,return,8.705,0,7,7,7,1,,,,,,,,,,,,,,,,,,,,,,,,,,,,,,,,,,,,,,,,,,,,,,,,,,,,,,,,,,,,,,,,,,,,,,,,,,,,,,,,,,,,,,,,,,,,,,,,,,,,,,,,,,,,,,,,,,,,,,,,,,,,,,,,,,,,,,,
,,10,001,2023-05-08_11h52.19.380,Experiment_Tuerk,2022.2.4,MacIntel,62.5,,,,,,,,,,,,,,,,,"29. If you are still paying attention to the test, please press the number four.",,,4,return,10.123,0,8,8,8,1,,,,,,,,,,,,,,,,,,,,,,,,,,,,,,,,,,,,,,,,,,,,,,,,,,,,,,,,,,,,,,,,,,,,,,,,,,,,,,,,,,,,,,,,,,,,,,,,,,,,,,,,,,,,,,,,,,,,,,,,,,,,,,,,,,,,,,,
,,10,001,2023-05-08_11h52.19.380,Experiment_Tuerk,2022.2.4,MacIntel,62.5,,,,,,,,,,,,,,,,,30. I worry too much over something that really doesn't matter.,,,2,return,10.915,0,9,9,9,1,,,,,,,,,,,,,,,,,,,,,,,,,,,,,,,,,,,,,,,,,,,,,,,,,,,,,,,,,,,,,,,,,,,,,,,,,,,,,,,,,,,,,,,,,,,,,,,,,,,,,,,,,,,,,,,,,,,,,,,,,,,,,,,,,,,,,,,
,,10,001,2023-05-08_11h52.19.380,Experiment_Tuerk,2022.2.4,MacIntel,62.5,,,,,,,,,,,,,,,,,31. I am happy.,,,4,return,7.997,0,10,10,10,1,,,,,,,,,,,,,,,,,,,,,,,,,,,,,,,,,,,,,,,,,,,,,,,,,,,,,,,,,,,,,,,,,,,,,,,,,,,,,,,,,,,,,,,,,,,,,,,,,,,,,,,,,,,,,,,,,,,,,,,,,,,,,,,,,,,,,,,
,,10,001,2023-05-08_11h52.19.380,Experiment_Tuerk,2022.2.4,MacIntel,62.5,,,,,,,,,,,,,,,,,32. I have disturbing thoughts.,,,1,return,5.761,0,11,11,11,1,,,,,,,,,,,,,,,,,,,,,,,,,,,,,,,,,,,,,,,,,,,,,,,,,,,,,,,,,,,,,,,,,,,,,,,,,,,,,,,,,,,,,,,,,,,,,,,,,,,,,,,,,,,,,,,,,,,,,,,,,,,,,,,,,,,,,,,
,,10,001,2023-05-08_11h52.19.380,Experiment_Tuerk,2022.2.4,MacIntel,62.5,,,,,,,,,,,,,,,,,33. I lack self-confidence.,,,2,return,5.167,0,12,12,12,1,,,,,,,,,,,,,,,,,,,,,,,,,,,,,,,,,,,,,,,,,,,,,,,,,,,,,,,,,,,,,,,,,,,,,,,,,,,,,,,,,,,,,,,,,,,,,,,,,,,,,,,,,,,,,,,,,,,,,,,,,,,,,,,,,,,,,,,
,,10,001,2023-05-08_11h52.19.380,Experiment_Tuerk,2022.2.4,MacIntel,62.5,,,,,,,,,,,,,,,,,34. I feel secure.,,,4,return,7.468,0,13,13,13,1,,,,,,,,,,,,,,,,,,,,,,,,,,,,,,,,,,,,,,,,,,,,,,,,,,,,,,,,,,,,,,,,,,,,,,,,,,,,,,,,,,,,,,,,,,,,,,,,,,,,,,,,,,,,,,,,,,,,,,,,,,,,,,,,,,,,,,,
,,10,001,2023-05-08_11h52.19.380,Experiment_Tuerk,2022.2.4,MacIntel,62.5,,,,,,,,,,,,,,,,,35. I make decisions easily.,,,3,return,4.626,0,14,14,14,1,,,,,,,,,,,,,,,,,,,,,,,,,,,,,,,,,,,,,,,,,,,,,,,,,,,,,,,,,,,,,,,,,,,,,,,,,,,,,,,,,,,,,,,,,,,,,,,,,,,,,,,,,,,,,,,,,,,,,,,,,,,,,,,,,,,,,,,
,,10,001,2023-05-08_11h52.19.380,Experiment_Tuerk,2022.2.4,MacIntel,62.5,,,,,,,,,,,,,,,,,36. I feel inadequate.,,,2,return,4.204,0,15,15,15,1,,,,,,,,,,,,,,,,,,,,,,,,,,,,,,,,,,,,,,,,,,,,,,,,,,,,,,,,,,,,,,,,,,,,,,,,,,,,,,,,,,,,,,,,,,,,,,,,,,,,,,,,,,,,,,,,,,,,,,,,,,,,,,,,,,,,,,,
,,10,001,2023-05-08_11h52.19.380,Experiment_Tuerk,2022.2.4,MacIntel,62.5,,,,,,,,,,,,,,,,,37. I don't feel nervous.,,,3,return,14.414,0,16,16,16,1,,,,,,,,,,,,,,,,,,,,,,,,,,,,,,,,,,,,,,,,,,,,,,,,,,,,,,,,,,,,,,,,,,,,,,,,,,,,,,,,,,,,,,,,,,,,,,,,,,,,,,,,,,,,,,,,,,,,,,,,,,,,,,,,,,,,,,,
,,10,001,2023-05-08_11h52.19.380,Experiment_Tuerk,2022.2.4,MacIntel,62.5,,,,,,,,,,,,,,,,,38. I am content.,,,4,return,19.002,0,17,17,17,1,,,,,,,,,,,,,,,,,,,,,,,,,,,,,,,,,,,,,,,,,,,,,,,,,,,,,,,,,,,,,,,,,,,,,,,,,,,,,,,,,,,,,,,,,,,,,,,,,,,,,,,,,,,,,,,,,,,,,,,,,,,,,,,,,,,,,,,
,,10,001,2023-05-08_11h52.19.380,Experiment_Tuerk,2022.2.4,MacIntel,62.5,,,,,,,,,,,,,,,,,39. Some unimportant thought runs through my mind and bothers me.,,,1,return,8.862,0,18,18,18,1,,,,,,,,,,,,,,,,,,,,,,,,,,,,,,,,,,,,,,,,,,,,,,,,,,,,,,,,,,,,,,,,,,,,,,,,,,,,,,,,,,,,,,,,,,,,,,,,,,,,,,,,,,,,,,,,,,,,,,,,,,,,,,,,,,,,,,,
,,10,001,2023-05-08_11h52.19.380,Experiment_Tuerk,2022.2.4,MacIntel,62.5,,,,,,,,,,,,,,,,,40. I take disappointments so keenly that I can't put them out of my mind.,,,1,return,9.209,0,19,19,19,1,,,,,,,,,,,,,,,,,,,,,,,,,,,,,,,,,,,,,,,,,,,,,,,,,,,,,,,,,,,,,,,,,,,,,,,,,,,,,,,,,,,,,,,,,,,,,,,,,,,,,,,,,,,,,,,,,,,,,,,,,,,,,,,,,,,,,,,
,,10,001,2023-05-08_11h52.19.380,Experiment_Tuerk,2022.2.4,MacIntel,62.5,,,,,,,,,,,,,,,,,41. I am a steady person.,,,4,return,23.392,0,20,20,20,1,,,,,,,,,,,,,,,,,,,,,,,,,,,,,,,,,,,,,,,,,,,,,,,,,,,,,,,,,,,,,,,,,,,,,,,,,,,,,,,,,,,,,,,,,,,,,,,,,,,,,,,,,,,,,,,,,,,,,,,,,,,,,,,,,,,,,,,
,,10,001,2023-05-08_11h52.19.380,Experiment_Tuerk,2022.2.4,MacIntel,62.5,,,,,,,,,,,,,,,,,42. I get in a state of tension or turmoil as I think over my recent concerns and interests.,,,1,return,15.605,0,21,21,21,1,,,,,,,,,,,,,,,,,,,,,,,,,,,,,,,,,,,,,,,,,,,,,,,,,,,,,,,,,,,,,,,,,,,,,,,,,,,,,,,,,,,,,,,,,,,,,,,,,,,,,,,,,,,,,,,,,,,,,,,,,,,,,,,,,,,,,,,
,,10,001,2023-05-08_11h52.19.380,Experiment_Tuerk,2022.2.4,MacIntel,62.5,,,,,,,,,,,,,,,,,,,,,,,,,,,,0,0,0,0,1,,,,,,,,,,,,,,,,,,,,,,,,,,,,,,,,,,,,,,,,,,,,,,,,,,,,,,,,,,,,,,,,,,,,,,,,,,,,,,,,,,,,,,,,,,,,,,,,,,,,,,,,,,,,,,,,,,,,,,,,,,,,,,,,,,
,,10,001,2023-05-08_11h52.19.380,Experiment_Tuerk,2022.2.4,MacIntel,62.5,,,,,,,,,,,,,,,,,,,,,,,,,,,,,,,,,0,0,0,3,1,0,0,0,1,,,,,,,,,,,,,,,,,,,,,,,,,,,,,,,,,,,,,,,,,,,,,,,,,,,,,,,,,,,,,,,,,,,,,,,,,,,,,,,,,,,,,,,,,,,,,,,,,,,,,,,,,,,,,,,,,,,,,,,,,
,,10,001,2023-05-08_11h52.19.380,Experiment_Tuerk,2022.2.4,MacIntel,62.5,,,,,,,,,,,,,,,,,,,,,,,,,,,,,,,,,,,,,,,,,,space,12.76,space,24.498,0,6.61,0,0,0,0,1,1. Sadness,0-I do not feel sad.,1-I feel sad much of the time.,2-I am sad all the time.,3-I am so sad or unhappy that I can't stand it.,,,,,,,,,,,,,,,,,,,,,,,,,,,,,,,,,,,,,,,,,,,,,,,,,,,,,,,,,,,,,,,,,,,,,,,,,,,,,,,,,,,,,,,,,,,,,,,,,,,,,,,,,
,,10,001,2023-05-08_11h52.19.380,Experiment_Tuerk,2022.2.4,MacIntel,62.5,,,,,,,,,,,,,,,,,,,,,,,,,,,,,,,,,,,,,,,,,,,,,,1,27.31,0,1,1,1,1,2. Pessimism,0-I am not  discouraged about my future.,1-I feel more discouraged about my future than I used to.,2-I do not expect things to work out for me.,3-I feel my future is hopeless and will only get worse.,,,,,,,,,,,,,,,,,,,,,,,,,,,,,,,,,,,,,,,,,,,,,,,,,,,,,,,,,,,,,,,,,,,,,,,,,,,,,,,,,,,,,,,,,,,,,,,,,,,,,,,,,
,,10,001,2023-05-08_11h52.19.380,Experiment_Tuerk,2022.2.4,MacIntel,62.5,,,,,,,,,,,,,,,,,,,,,,,,,,,,,,,,,,,,,,,,,,,,,,0,8.788,0,2,2,2,1,3. Past failure,0-I do not feel like a failure.,1-I have failed more than I should have.,"2-As I look back, I see a lot of failures.",3-I feel I am a total failure as a person.,,,,,,,,,,,,,,,,,,,,,,,,,,,,,,,,,,,,,,,,,,,,,,,,,,,,,,,,,,,,,,,,,,,,,,,,,,,,,,,,,,,,,,,,,,,,,,,,,,,,,,,,,
,,10,001,2023-05-08_11h52.19.380,Experiment_Tuerk,2022.2.4,MacIntel,62.5,,,,,,,,,,,,,,,,,,,,,,,,,,,,,,,,,,,,,,,,,,,,,,0,7.746,0,3,3,3,1,4. Loss of Pleasure,0-I get as much pleasure as I ever did from the things I enjoy.,1-I don't enjoy things as much as I used to.,2-I get very little pleasure from the things I used to enjoy.,3-I can't get any pleasure from the things I used to enjoy.,,,,,,,,,,,,,,,,,,,,,,,,,,,,,,,,,,,,,,,,,,,,,,,,,,,,,,,,,,,,,,,,,,,,,,,,,,,,,,,,,,,,,,,,,,,,,,,,,,,,,,,,,
,,10,001,2023-05-08_11h52.19.380,Experiment_Tuerk,2022.2.4,MacIntel,62.5,,,,,,,,,,,,,,,,,,,,,,,,,,,,,,,,,,,,,,,,,,,,,,0,13.879,0,4,4,4,1,5. Guilty feelings,0-I don't feel particularly guilty.,1-I feel guilty over many things I have done or should have done.,2-I feel quite guilty most of the time.,3-I feel guilty all of the time.,,,,,,,,,,,,,,,,,,,,,,,,,,,,,,,,,,,,,,,,,,,,,,,,,,,,,,,,,,,,,,,,,,,,,,,,,,,,,,,,,,,,,,,,,,,,,,,,,,,,,,,,,
,,10,001,2023-05-08_11h52.19.380,Experiment_Tuerk,2022.2.4,MacIntel,62.5,,,,,,,,,,,,,,,,,,,,,,,,,,,,,,,,,,,,,,,,,,,,,,0,7.272,0,5,5,5,1,6. Punishment feelings,0-I don't feel I am being punished.,1-I feel I may be punished.,2-I expect to be punished.,3-I feel I am being punished.,,,,,,,,,,,,,,,,,,,,,,,,,,,,,,,,,,,,,,,,,,,,,,,,,,,,,,,,,,,,,,,,,,,,,,,,,,,,,,,,,,,,,,,,,,,,,,,,,,,,,,,,,
,,10,001,2023-05-08_11h52.19.380,Experiment_Tuerk,2022.2.4,MacIntel,62.5,,,,,,,,,,,,,,,,,,,,,,,,,,,,,,,,,,,,,,,,,,,,,,0,7.298,0,6,6,6,1,7. Self-dislike,0-I feel the same about myself as ever.,1-I have lost confidence in myself.,2-I am disappointed in myself.,3-I dislike myself.,,,,,,,,,,,,,,,,,,,,,,,,,,,,,,,,,,,,,,,,,,,,,,,,,,,,,,,,,,,,,,,,,,,,,,,,,,,,,,,,,,,,,,,,,,,,,,,,,,,,,,,,,
,,10,001,2023-05-08_11h52.19.380,Experiment_Tuerk,2022.2.4,MacIntel,62.5,,,,,,,,,,,,,,,,,,,,,,,,,,,,,,,,,,,,,,,,,,,,,,0,18.458,0,7,7,7,1,8. Self-criticalness,0-I don't criticize or blame myself more than usual.,1-I am more critical of myself than I used to be.,2-I criticize myself for all of my faults.,3-I blame myself for everything bad that happens.,,,,,,,,,,,,,,,,,,,,,,,,,,,,,,,,,,,,,,,,,,,,,,,,,,,,,,,,,,,,,,,,,,,,,,,,,,,,,,,,,,,,,,,,,,,,,,,,,,,,,,,,,
,,10,001,2023-05-08_11h52.19.380,Experiment_Tuerk,2022.2.4,MacIntel,62.5,,,,,,,,,,,,,,,,,,,,,,,,,,,,,,,,,,,,,,,,,,,,,,0,4.304,0,8,8,8,1,9. Suicidal thoughts or wishes,0-I don't have any thoughts of killing myself.,"1-I have thoughts of killing myself, but I would not carry them out.",2-I would like to kill myself.,3-I would kill myself if I had the chance.,,,,,,,,,,,,,,,,,,,,,,,,,,,,,,,,,,,,,,,,,,,,,,,,,,,,,,,,,,,,,,,,,,,,,,,,,,,,,,,,,,,,,,,,,,,,,,,,,,,,,,,,,
,,10,001,2023-05-08_11h52.19.380,Experiment_Tuerk,2022.2.4,MacIntel,62.5,,,,,,,,,,,,,,,,,,,,,,,,,,,,,,,,,,,,,,,,,,,,,,0,6.077,0,9,9,9,1,10. Crying,0-I don't cry anymore than I used to.,1-I cry more than I used to.,2-I cry over every little thing.,"3-I feel like crying, but I can't.",,,,,,,,,,,,,,,,,,,,,,,,,,,,,,,,,,,,,,,,,,,,,,,,,,,,,,,,,,,,,,,,,,,,,,,,,,,,,,,,,,,,,,,,,,,,,,,,,,,,,,,,,
,,10,001,2023-05-08_11h52.19.380,Experiment_Tuerk,2022.2.4,MacIntel,62.5,,,,,,,,,,,,,,,,,,,,,,,,,,,,,,,,,,,,,,,,,,,,,,0,14.674,0,10,10,10,1,11. Agitation,0-I am no more restless or wound up than usual.,1-I feel more restless or wound up than usual.,"2-I am so restless or agitated, it's hard to stay still.",3-I am so restless or agitated that I have to keep moving or doing something.,,,,,,,,,,,,,,,,,,,,,,,,,,,,,,,,,,,,,,,,,,,,,,,,,,,,,,,,,,,,,,,,,,,,,,,,,,,,,,,,,,,,,,,,,,,,,,,,,,,,,,,,,
,,10,001,2023-05-08_11h52.19.380,Experiment_Tuerk,2022.2.4,MacIntel,62.5,,,,,,,,,,,,,,,,,,,,,,,,,,,,,,,,,,,,,,,,,,,,,,0,7.954,0,11,11,11,1,12. Loss of Interest,0-I have not lost interest in other people or activities.,1-I am less interested in other people or things than before.,2-I have lost most of my interest in other people or things.,3-It's hard to get interested in anything.,,,,,,,,,,,,,,,,,,,,,,,,,,,,,,,,,,,,,,,,,,,,,,,,,,,,,,,,,,,,,,,,,,,,,,,,,,,,,,,,,,,,,,,,,,,,,,,,,,,,,,,,,
,,10,001,2023-05-08_11h52.19.380,Experiment_Tuerk,2022.2.4,MacIntel,62.5,,,,,,,,,,,,,,,,,,,,,,,,,,,,,,,,,,,,,,,,,,,,,,0,13.511,0,12,12,12,1,13. Indecisiveness,0-I make decisions about as well as ever.,1-I find it more difficult to make decisions than usual.,2-I have much greater difficulty in making decisions than I used to.,3-I have trouble making any decisions.,,,,,,,,,,,,,,,,,,,,,,,,,,,,,,,,,,,,,,,,,,,,,,,,,,,,,,,,,,,,,,,,,,,,,,,,,,,,,,,,,,,,,,,,,,,,,,,,,,,,,,,,,
,,10,001,2023-05-08_11h52.19.380,Experiment_Tuerk,2022.2.4,MacIntel,62.5,,,,,,,,,,,,,,,,,,,,,,,,,,,,,,,,,,,,,,,,,,,,,,0,8.355,0,13,13,13,1,14. Worthlessness,0-I do not feel I am worthless.,1-I don't consider myself as worthwhile and useful as I used to.,2-I feel more worthless as compared to others.,3-I feel utterly worthless.,,,,,,,,,,,,,,,,,,,,,,,,,,,,,,,,,,,,,,,,,,,,,,,,,,,,,,,,,,,,,,,,,,,,,,,,,,,,,,,,,,,,,,,,,,,,,,,,,,,,,,,,,
,,10,001,2023-05-08_11h52.19.380,Experiment_Tuerk,2022.2.4,MacIntel,62.5,,,,,,,,,,,,,,,,,,,,,,,,,,,,,,,,,,,,,,,,,,,,,,1,7.226,0,14,14,14,1,15. Loss of energy,0-I have as much energy as ever.,1-I have less energy than I used to have.,2-I don't have enough energy to do very much.,3-I don't have enough energy to do anything.,,,,,,,,,,,,,,,,,,,,,,,,,,,,,,,,,,,,,,,,,,,,,,,,,,,,,,,,,,,,,,,,,,,,,,,,,,,,,,,,,,,,,,,,,,,,,,,,,,,,,,,,,
,,10,001,2023-05-08_11h52.19.380,Experiment_Tuerk,2022.2.4,MacIntel,62.5,,,,,,,,,,,,,,,,,,,,,,,,,,,,,,,,,,,,,,,,,,,,,,1,22.352,0,15,15,15,1,16. Changes in sleeping pattern,0-I have not experienced any change in my sleeping.,"1a-I sleep somewhat more than usual.
1b-I sleep somewhat less than usual.","2a-I sleep a lot more than usual.
2b-I sleep a lot less than usual.","3a-I sleep most of the day.
3b-I wake up 1-2 hours early and can't get back to sleep.",,,,,,,,,,,,,,,,,,,,,,,,,,,,,,,,,,,,,,,,,,,,,,,,,,,,,,,,,,,,,,,,,,,,,,,,,,,,,,,,,,,,,,,,,,,,,,,,,,,,,,,,,
,,10,001,2023-05-08_11h52.19.380,Experiment_Tuerk,2022.2.4,MacIntel,62.5,,,,,,,,,,,,,,,,,,,,,,,,,,,,,,,,,,,,,,,,,,,,,,0,9.846,0,16,16,16,1,17. Irritability,0-I am not more irritable than usual.,1-I am more irritable than usual.,2-I am much more irritable than usual.,3-I am irritable all the time.,,,,,,,,,,,,,,,,,,,,,,,,,,,,,,,,,,,,,,,,,,,,,,,,,,,,,,,,,,,,,,,,,,,,,,,,,,,,,,,,,,,,,,,,,,,,,,,,,,,,,,,,,
,,10,001,2023-05-08_11h52.19.380,Experiment_Tuerk,2022.2.4,MacIntel,62.5,,,,,,,,,,,,,,,,,,,,,,,,,,,,,,,,,,,,,,,,,,,,,,1,8.672,0,17,17,17,1,18. Changes in Appetite,0-I have not experienced any change in my appetite.,"1a-My appetite is somewhat less than usual.
1b-My appetite is somewhat greater than usual.","2a-My appetite is much less than before.
2b-My appetite is much greater than usual.","3a-I have no appetite at all.
3b-I crave food all the time.",,,,,,,,,,,,,,,,,,,,,,,,,,,,,,,,,,,,,,,,,,,,,,,,,,,,,,,,,,,,,,,,,,,,,,,,,,,,,,,,,,,,,,,,,,,,,,,,,,,,,,,,,
,,10,001,2023-05-08_11h52.19.380,Experiment_Tuerk,2022.2.4,MacIntel,62.5,,,,,,,,,,,,,,,,,,,,,,,,,,,,,,,,,,,,,,,,,,,,,,0,6.426,0,18,18,18,1,19. Concentration difficulty,0-I can concentrate as well as ever.,1-I can't concentrate as well as usual.,2-It's hard to keep my mind on anything for very long.,3-I find I can't concentrate on anything.,,,,,,,,,,,,,,,,,,,,,,,,,,,,,,,,,,,,,,,,,,,,,,,,,,,,,,,,,,,,,,,,,,,,,,,,,,,,,,,,,,,,,,,,,,,,,,,,,,,,,,,,,
,,10,001,2023-05-08_11h52.19.380,Experiment_Tuerk,2022.2.4,MacIntel,62.5,,,,,,,,,,,,,,,,,,,,,,,,,,,,,,,,,,,,,,,,,,,,,,1,11.045,0,19,19,19,1,20. Tiredness or fatigue,0-I am no more tired or fatigued than usual.,1-I get more tired or fatigued more easily than usual.,2-I am too tired or fatigued to do a lot of the things I used to do.,3-I am too tired or fatigued to do most of the things I used to do.,,,,,,,,,,,,,,,,,,,,,,,,,,,,,,,,,,,,,,,,,,,,,,,,,,,,,,,,,,,,,,,,,,,,,,,,,,,,,,,,,,,,,,,,,,,,,,,,,,,,,,,,,
,,10,001,2023-05-08_11h52.19.380,Experiment_Tuerk,2022.2.4,MacIntel,62.5,,,,,,,,,,,,,,,,,,,,,,,,,,,,,,,,,,,,,,,,,,,,,,1,13.346,0,20,20,20,1,21. Loss of interest in sex,0-I have not noticed any recent change in my interest in sex.,1-I am less interested in sex than I used to be.,2-I am much less interested in sex now.,3-I have lost interest in sex completely.,,,,,,,,,,,,,,,,,,,,,,,,,,,,,,,,,,,,,,,,,,,,,,,,,,,,,,,,,,,,,,,,,,,,,,,,,,,,,,,,,,,,,,,,,,,,,,,,,,,,,,,,,
,,10,001,2023-05-08_11h52.19.380,Experiment_Tuerk,2022.2.4,MacIntel,62.5,,,,,,,,,,,,,,,,,,,,,,,,,,,,,,,,,,,,,,,,,,,,,,,,,,,,,,,,,,0,0,0,0,1,,,,,,,,,,,,,,,,,,,,,,,,,,,,,,,,,,,,,,,,,,,,,,,,,,,,,,,,,,,,,,,,,,,,,,,,,,,,,,,,,,,,,,,,,,,,,,,,,,,,
,,10,001,2023-05-08_11h52.19.380,Experiment_Tuerk,2022.2.4,MacIntel,62.5,,,,,,,,,,,,,,,,,,,,,,,,,,,,,,,,,0,1,1,1,1,0,1,0,0,,,,,,,,,,,,,,,,,,,,,,,,,,,,,,,,,,,,,,,,,,,,,,,,,,,,,,,,,,,,,,,,,,,,,,,,,,,,,,,,,,,,,,,,,,,,,,,,,,,,,,,,,,,,,,,,,,,,,,,,,
,,10,001,2023-05-08_11h52.19.380,Experiment_Tuerk,2022.2.4,MacIntel,62.5,,,,,,,,,,,,,,,,,,,,,,,,,,,,,,,,,,,,,,,,,,,,,,,,,,,,,,,,,,,,,,,space,12.484,space,1.982,5,return,13.124,0,0,0,0,1,interested,pos,1,,,,,,,,,,,,,,,,,,,,,,,,,,,,,,,,,,,,,,,,,,,,,,,,,,,,,,,,,,,,,,,,,,,,,,,,,,,,,,,,,,,,,
,,10,001,2023-05-08_11h52.19.380,Experiment_Tuerk,2022.2.4,MacIntel,62.5,,,,,,,,,,,,,,,,,,,,,,,,,,,,,,,,,,,,,,,,,,,,,,,,,,,,,,,,,,,,,,,,,,,3,return,12.381,0,1,1,1,1,distressed,neg,2,,,,,,,,,,,,,,,,,,,,,,,,,,,,,,,,,,,,,,,,,,,,,,,,,,,,,,,,,,,,,,,,,,,,,,,,,,,,,,,,,,,,,
,,10,001,2023-05-08_11h52.19.380,Experiment_Tuerk,2022.2.4,MacIntel,62.5,,,,,,,,,,,,,,,,,,,,,,,,,,,,,,,,,,,,,,,,,,,,,,,,,,,,,,,,,,,,,,,,,,,4,return,5.064,0,2,2,2,1,excited,pos,1,,,,,,,,,,,,,,,,,,,,,,,,,,,,,,,,,,,,,,,,,,,,,,,,,,,,,,,,,,,,,,,,,,,,,,,,,,,,,,,,,,,,,
,,10,001,2023-05-08_11h52.19.380,Experiment_Tuerk,2022.2.4,MacIntel,62.5,,,,,,,,,,,,,,,,,,,,,,,,,,,,,,,,,,,,,,,,,,,,,,,,,,,,,,,,,,,,,,,,,,,1,return,5.382,0,3,3,3,1,upset,neg,2,,,,,,,,,,,,,,,,,,,,,,,,,,,,,,,,,,,,,,,,,,,,,,,,,,,,,,,,,,,,,,,,,,,,,,,,,,,,,,,,,,,,,
,,10,001,2023-05-08_11h52.19.380,Experiment_Tuerk,2022.2.4,MacIntel,62.5,,,,,,,,,,,,,,,,,,,,,,,,,,,,,,,,,,,,,,,,,,,,,,,,,,,,,,,,,,,,,,,,,,,4,return,4.99,0,4,4,4,1,strong,pos,1,,,,,,,,,,,,,,,,,,,,,,,,,,,,,,,,,,,,,,,,,,,,,,,,,,,,,,,,,,,,,,,,,,,,,,,,,,,,,,,,,,,,,
,,10,001,2023-05-08_11h52.19.380,Experiment_Tuerk,2022.2.4,MacIntel,62.5,,,,,,,,,,,,,,,,,,,,,,,,,,,,,,,,,,,,,,,,,,,,,,,,,,,,,,,,,,,,,,,,,,,1,return,3.456,0,5,5,5,1,guilty,neg,2,,,,,,,,,,,,,,,,,,,,,,,,,,,,,,,,,,,,,,,,,,,,,,,,,,,,,,,,,,,,,,,,,,,,,,,,,,,,,,,,,,,,,
,,10,001,2023-05-08_11h52.19.380,Experiment_Tuerk,2022.2.4,MacIntel,62.5,,,,,,,,,,,,,,,,,,,,,,,,,,,,,,,,,,,,,,,,,,,,,,,,,,,,,,,,,,,,,,,,,,,1,return,2.652,0,6,6,6,1,scared,neg,2,,,,,,,,,,,,,,,,,,,,,,,,,,,,,,,,,,,,,,,,,,,,,,,,,,,,,,,,,,,,,,,,,,,,,,,,,,,,,,,,,,,,,
,,10,001,2023-05-08_11h52.19.380,Experiment_Tuerk,2022.2.4,MacIntel,62.5,,,,,,,,,,,,,,,,,,,,,,,,,,,,,,,,,,,,,,,,,,,,,,,,,,,,,,,,,,,,,,,,,,,1,return,15.486,0,7,7,7,1,hostile,neg,2,,,,,,,,,,,,,,,,,,,,,,,,,,,,,,,,,,,,,,,,,,,,,,,,,,,,,,,,,,,,,,,,,,,,,,,,,,,,,,,,,,,,,
,,10,001,2023-05-08_11h52.19.380,Experiment_Tuerk,2022.2.4,MacIntel,62.5,,,,,,,,,,,,,,,,,,,,,,,,,,,,,,,,,,,,,,,,,,,,,,,,,,,,,,,,,,,,,,,,,,,4,return,6.306,0,8,8,8,1,enthusiastic,pos,1,,,,,,,,,,,,,,,,,,,,,,,,,,,,,,,,,,,,,,,,,,,,,,,,,,,,,,,,,,,,,,,,,,,,,,,,,,,,,,,,,,,,,
,,10,001,2023-05-08_11h52.19.380,Experiment_Tuerk,2022.2.4,MacIntel,62.5,,,,,,,,,,,,,,,,,,,,,,,,,,,,,,,,,,,,,,,,,,,,,,,,,,,,,,,,,,,,,,,,,,,4,return,3.475,0,9,9,9,1,proud,pos,1,,,,,,,,,,,,,,,,,,,,,,,,,,,,,,,,,,,,,,,,,,,,,,,,,,,,,,,,,,,,,,,,,,,,,,,,,,,,,,,,,,,,,
,,10,001,2023-05-08_11h52.19.380,Experiment_Tuerk,2022.2.4,MacIntel,62.5,,,,,,,,,,,,,,,,,,,,,,,,,,,,,,,,,,,,,,,,,,,,,,,,,,,,,,,,,,,,,,,,,,,1,return,2.667,0,10,10,10,1,irritable,neg,2,,,,,,,,,,,,,,,,,,,,,,,,,,,,,,,,,,,,,,,,,,,,,,,,,,,,,,,,,,,,,,,,,,,,,,,,,,,,,,,,,,,,,
,,10,001,2023-05-08_11h52.19.380,Experiment_Tuerk,2022.2.4,MacIntel,62.5,,,,,,,,,,,,,,,,,,,,,,,,,,,,,,,,,,,,,,,,,,,,,,,,,,,,,,,,,,,,,,,,,,,1,return,1.984,0,11,11,11,1,alert,pos,1,,,,,,,,,,,,,,,,,,,,,,,,,,,,,,,,,,,,,,,,,,,,,,,,,,,,,,,,,,,,,,,,,,,,,,,,,,,,,,,,,,,,,
,,10,001,2023-05-08_11h52.19.380,Experiment_Tuerk,2022.2.4,MacIntel,62.5,,,,,,,,,,,,,,,,,,,,,,,,,,,,,,,,,,,,,,,,,,,,,,,,,,,,,,,,,,,,,,,,,,,1,return,2.244,0,12,12,12,1,ashamed,neg,2,,,,,,,,,,,,,,,,,,,,,,,,,,,,,,,,,,,,,,,,,,,,,,,,,,,,,,,,,,,,,,,,,,,,,,,,,,,,,,,,,,,,,
,,10,001,2023-05-08_11h52.19.380,Experiment_Tuerk,2022.2.4,MacIntel,62.5,,,,,,,,,,,,,,,,,,,,,,,,,,,,,,,,,,,,,,,,,,,,,,,,,,,,,,,,,,,,,,,,,,,3,return,7.28,0,13,13,13,1,inspired,pos,1,,,,,,,,,,,,,,,,,,,,,,,,,,,,,,,,,,,,,,,,,,,,,,,,,,,,,,,,,,,,,,,,,,,,,,,,,,,,,,,,,,,,,
,,10,001,2023-05-08_11h52.19.380,Experiment_Tuerk,2022.2.4,MacIntel,62.5,,,,,,,,,,,,,,,,,,,,,,,,,,,,,,,,,,,,,,,,,,,,,,,,,,,,,,,,,,,,,,,,,,,2,return,5.676,0,14,14,14,1,nervous,neg,2,,,,,,,,,,,,,,,,,,,,,,,,,,,,,,,,,,,,,,,,,,,,,,,,,,,,,,,,,,,,,,,,,,,,,,,,,,,,,,,,,,,,,
,,10,001,2023-05-08_11h52.19.380,Experiment_Tuerk,2022.2.4,MacIntel,62.5,,,,,,,,,,,,,,,,,,,,,,,,,,,,,,,,,,,,,,,,,,,,,,,,,,,,,,,,,,,,,,,,,,,4,return,8.165,0,15,15,15,1,determined,pos,1,,,,,,,,,,,,,,,,,,,,,,,,,,,,,,,,,,,,,,,,,,,,,,,,,,,,,,,,,,,,,,,,,,,,,,,,,,,,,,,,,,,,,
,,10,001,2023-05-08_11h52.19.380,Experiment_Tuerk,2022.2.4,MacIntel,62.5,,,,,,,,,,,,,,,,,,,,,,,,,,,,,,,,,,,,,,,,,,,,,,,,,,,,,,,,,,,,,,,,,,,4,return,17.599,0,16,16,16,1,attentive,neg,2,,,,,,,,,,,,,,,,,,,,,,,,,,,,,,,,,,,,,,,,,,,,,,,,,,,,,,,,,,,,,,,,,,,,,,,,,,,,,,,,,,,,,
,,10,001,2023-05-08_11h52.19.380,Experiment_Tuerk,2022.2.4,MacIntel,62.5,,,,,,,,,,,,,,,,,,,,,,,,,,,,,,,,,,,,,,,,,,,,,,,,,,,,,,,,,,,,,,,,,,,2,return,3.438,0,17,17,17,1,jittery,neg,2,,,,,,,,,,,,,,,,,,,,,,,,,,,,,,,,,,,,,,,,,,,,,,,,,,,,,,,,,,,,,,,,,,,,,,,,,,,,,,,,,,,,,
,,10,001,2023-05-08_11h52.19.380,Experiment_Tuerk,2022.2.4,MacIntel,62.5,,,,,,,,,,,,,,,,,,,,,,,,,,,,,,,,,,,,,,,,,,,,,,,,,,,,,,,,,,,,,,,,,,,2,return,4.894,0,18,18,18,1,active,pos,1,,,,,,,,,,,,,,,,,,,,,,,,,,,,,,,,,,,,,,,,,,,,,,,,,,,,,,,,,,,,,,,,,,,,,,,,,,,,,,,,,,,,,
,,10,001,2023-05-08_11h52.19.380,Experiment_Tuerk,2022.2.4,MacIntel,62.5,,,,,,,,,,,,,,,,,,,,,,,,,,,,,,,,,,,,,,,,,,,,,,,,,,,,,,,,,,,,,,,,,,,1,return,2.227,0,19,19,19,1,afraid,neg,2,,,,,,,,,,,,,,,,,,,,,,,,,,,,,,,,,,,,,,,,,,,,,,,,,,,,,,,,,,,,,,,,,,,,,,,,,,,,,,,,,,,,,
,,10,001,2023-05-08_11h52.19.380,Experiment_Tuerk,2022.2.4,MacIntel,62.5,,,,,,,,,,,,,,,,,,,,,,,,,,,,,,,,,,,,,,,,,,,,,,,,,,,,,,,,,,,,,,,,,,,,,,,,,,,,,,0,0,0,0,1,,,,,,,,,,,,,,,,,,,,,,,,,,,,,,,,,,,,,,,,,,,,,,,,,,,,,,,,,,,,,,,,,,,,,,,,,,,,,,,,
,,10,001,2023-05-08_11h52.19.380,Experiment_Tuerk,2022.2.4,MacIntel,62.5,,,,,,,,,,,,,,,,,,,,,,,,,,,,,,,,,0,2,2,0,1,1,0,0,0,,,,,,,,,,,,,,,,,,,,,,,,,,,,,,,,,,,,,,,,,,,,,,,,,,,,,,,,,,,,,,,,,,,,,,,,,,,,,,,,,,,,,,,,,,,,,,,,,,,,,,,,,,,,,,,,,,,,,,,,,
,,10,001,2023-05-08_11h52.19.380,Experiment_Tuerk,2022.2.4,MacIntel,62.5,,,,,,,,,,,,,,,,,1. I would enjoy my favourite television or radio programme: ,,,,,,,,,,,,,,,,,,,,,,,,,,,,,,,,,,,,,,,,,,,,,,,,,,,,,,,,,,,,,,,,,,space,11.148,space,3.587,3,return,8.627,0,0,0,0,1,,,,,,,,,,,,,,,,,,,,,,,,,,,,,,,,,,,,,,,,,,,,,,,,,,,,,,,,,,,,,,,,,,,,
,,10,001,2023-05-08_11h52.19.380,Experiment_Tuerk,2022.2.4,MacIntel,62.5,,,,,,,,,,,,,,,,,2. I would enjoy being with my family or close friends: ,,,,,,,,,,,,,,,,,,,,,,,,,,,,,,,,,,,,,,,,,,,,,,,,,,,,,,,,,,,,,,,,,,,,,,4,return,3.847,0,1,1,1,1,,,,,,,,,,,,,,,,,,,,,,,,,,,,,,,,,,,,,,,,,,,,,,,,,,,,,,,,,,,,,,,,,,,,
,,10,001,2023-05-08_11h52.19.380,Experiment_Tuerk,2022.2.4,MacIntel,62.5,,,,,,,,,,,,,,,,,3. I would find pleasure in my hobbies and pastime: ,,,,,,,,,,,,,,,,,,,,,,,,,,,,,,,,,,,,,,,,,,,,,,,,,,,,,,,,,,,,,,,,,,,,,,4,return,4.014,0,2,2,2,1,,,,,,,,,,,,,,,,,,,,,,,,,,,,,,,,,,,,,,,,,,,,,,,,,,,,,,,,,,,,,,,,,,,,
,,10,001,2023-05-08_11h52.19.380,Experiment_Tuerk,2022.2.4,MacIntel,62.5,,,,,,,,,,,,,,,,,4. I would not be able to enjoy small things like a sunny day or a phone call from a friend:,,,,,,,,,,,,,,,,,,,,,,,,,,,,,,,,,,,,,,,,,,,,,,,,,,,,,,,,,,,,,,,,,,,,,,1,return,7.158,0,3,3,3,1,,,,,,,,,,,,,,,,,,,,,,,,,,,,,,,,,,,,,,,,,,,,,,,,,,,,,,,,,,,,,,,,,,,,
,,10,001,2023-05-08_11h52.19.380,Experiment_Tuerk,2022.2.4,MacIntel,62.5,,,,,,,,,,,,,,,,,5. I would be able to enjoy my favourite meal:,,,,,,,,,,,,,,,,,,,,,,,,,,,,,,,,,,,,,,,,,,,,,,,,,,,,,,,,,,,,,,,,,,,,,,4,return,4.856,0,4,4,4,1,,,,,,,,,,,,,,,,,,,,,,,,,,,,,,,,,,,,,,,,,,,,,,,,,,,,,,,,,,,,,,,,,,,,
,,10,001,2023-05-08_11h52.19.380,Experiment_Tuerk,2022.2.4,MacIntel,62.5,,,,,,,,,,,,,,,,,6. I would enjoy a warm bath or refreshing shower:,,,,,,,,,,,,,,,,,,,,,,,,,,,,,,,,,,,,,,,,,,,,,,,,,,,,,,,,,,,,,,,,,,,,,,4,return,4.162,0,5,5,5,1,,,,,,,,,,,,,,,,,,,,,,,,,,,,,,,,,,,,,,,,,,,,,,,,,,,,,,,,,,,,,,,,,,,,
,,10,001,2023-05-08_11h52.19.380,Experiment_Tuerk,2022.2.4,MacIntel,62.5,,,,,,,,,,,,,,,,,7. I would find pleasure in the scent of flowers or the smell of a fresh sea breeze or freshly baked bread:,,,,,,,,,,,,,,,,,,,,,,,,,,,,,,,,,,,,,,,,,,,,,,,,,,,,,,,,,,,,,,,,,,,,,,4,return,6.142,0,6,6,6,1,,,,,,,,,,,,,,,,,,,,,,,,,,,,,,,,,,,,,,,,,,,,,,,,,,,,,,,,,,,,,,,,,,,,
,,10,001,2023-05-08_11h52.19.380,Experiment_Tuerk,2022.2.4,MacIntel,62.5,,,,,,,,,,,,,,,,,8. I would enjoy seeing other people's smiling faces:,,,,,,,,,,,,,,,,,,,,,,,,,,,,,,,,,,,,,,,,,,,,,,,,,,,,,,,,,,,,,,,,,,,,,,4,return,3.825,0,7,7,7,1,,,,,,,,,,,,,,,,,,,,,,,,,,,,,,,,,,,,,,,,,,,,,,,,,,,,,,,,,,,,,,,,,,,,
,,10,001,2023-05-08_11h52.19.380,Experiment_Tuerk,2022.2.4,MacIntel,62.5,,,,,,,,,,,,,,,,,9. I would enjoy looking smart when I have made an effort with my appearance:,,,,,,,,,,,,,,,,,,,,,,,,,,,,,,,,,,,,,,,,,,,,,,,,,,,,,,,,,,,,,,,,,,,,,,4,return,6.991,0,8,8,8,1,,,,,,,,,,,,,,,,,,,,,,,,,,,,,,,,,,,,,,,,,,,,,,,,,,,,,,,,,,,,,,,,,,,,
,,10,001,2023-05-08_11h52.19.380,Experiment_Tuerk,2022.2.4,MacIntel,62.5,,,,,,,,,,,,,,,,,"10. I would enjoy reading a book, magazine or newspaper:",,,,,,,,,,,,,,,,,,,,,,,,,,,,,,,,,,,,,,,,,,,,,,,,,,,,,,,,,,,,,,,,,,,,,,4,return,4.28,0,9,9,9,1,,,,,,,,,,,,,,,,,,,,,,,,,,,,,,,,,,,,,,,,,,,,,,,,,,,,,,,,,,,,,,,,,,,,
,,10,001,2023-05-08_11h52.19.380,Experiment_Tuerk,2022.2.4,MacIntel,62.5,,,,,,,,,,,,,,,,,"11. If you are still attentive to the test, please press the number one:",,,,,,,,,,,,,,,,,,,,,,,,,,,,,,,,,,,,,,,,,,,,,,,,,,,,,,,,,,,,,,,,,,,,,,1,return,5.338,0,10,10,10,1,,,,,,,,,,,,,,,,,,,,,,,,,,,,,,,,,,,,,,,,,,,,,,,,,,,,,,,,,,,,,,,,,,,,
,,10,001,2023-05-08_11h52.19.380,Experiment_Tuerk,2022.2.4,MacIntel,62.5,,,,,,,,,,,,,,,,,12. I would enjoy a cup of tea or coffee or my favourite drink:,,,,,,,,,,,,,,,,,,,,,,,,,,,,,,,,,,,,,,,,,,,,,,,,,,,,,,,,,,,,,,,,,,,,,,4,return,9.61,0,11,11,11,1,,,,,,,,,,,,,,,,,,,,,,,,,,,,,,,,,,,,,,,,,,,,,,,,,,,,,,,,,,,,,,,,,,,,
,,10,001,2023-05-08_11h52.19.380,Experiment_Tuerk,2022.2.4,MacIntel,62.5,,,,,,,,,,,,,,,,,"13. I would find pleasure in small things, e.g. bright sunny day, a telephone call from a friend:",,,,,,,,,,,,,,,,,,,,,,,,,,,,,,,,,,,,,,,,,,,,,,,,,,,,,,,,,,,,,,,,,,,,,,4,return,9.992,0,12,12,12,1,,,,,,,,,,,,,,,,,,,,,,,,,,,,,,,,,,,,,,,,,,,,,,,,,,,,,,,,,,,,,,,,,,,,
,,10,001,2023-05-08_11h52.19.380,Experiment_Tuerk,2022.2.4,MacIntel,62.5,,,,,,,,,,,,,,,,,14. I would be able to enjoy a beautiful landscape or view: ,,,,,,,,,,,,,,,,,,,,,,,,,,,,,,,,,,,,,,,,,,,,,,,,,,,,,,,,,,,,,,,,,,,,,,4,return,6.32,0,13,13,13,1,,,,,,,,,,,,,,,,,,,,,,,,,,,,,,,,,,,,,,,,,,,,,,,,,,,,,,,,,,,,,,,,,,,,
,,10,001,2023-05-08_11h52.19.380,Experiment_Tuerk,2022.2.4,MacIntel,62.5,,,,,,,,,,,,,,,,,15. I would not enjoy my favourite television or radio programme:,,,,,,,,,,,,,,,,,,,,,,,,,,,,,,,,,,,,,,,,,,,,,,,,,,,,,,,,,,,,,,,,,,,,,,1,return,10.958,0,14,14,14,1,,,,,,,,,,,,,,,,,,,,,,,,,,,,,,,,,,,,,,,,,,,,,,,,,,,,,,,,,,,,,,,,,,,,
,,10,001,2023-05-08_11h52.19.380,Experiment_Tuerk,2022.2.4,MacIntel,62.5,,,,,,,,,,,,,,,,,16. I would get pleasure from helping others:,,,,,,,,,,,,,,,,,,,,,,,,,,,,,,,,,,,,,,,,,,,,,,,,,,,,,,,,,,,,,,,,,,,,,,4,return,7.26,0,15,15,15,1,,,,,,,,,,,,,,,,,,,,,,,,,,,,,,,,,,,,,,,,,,,,,,,,,,,,,,,,,,,,,,,,,,,,
,,10,001,2023-05-08_11h52.19.380,Experiment_Tuerk,2022.2.4,MacIntel,62.5,,,,,,,,,,,,,,,,,17. I would feel pleasure when I receive praise from other people:,,,,,,,,,,,,,,,,,,,,,,,,,,,,,,,,,,,,,,,,,,,,,,,,,,,,,,,,,,,,,,,,,,,,,,4,return,4.972,0,16,16,16,1,,,,,,,,,,,,,,,,,,,,,,,,,,,,,,,,,,,,,,,,,,,,,,,,,,,,,,,,,,,,,,,,,,,,
,,10,001,2023-05-08_11h52.19.380,Experiment_Tuerk,2022.2.4,MacIntel,62.5,,,,,,,,,,,,,,,,,,,,,,,,,,,,,,,,,,,,,,,,,,,,,,,,,,,,,,,,,,,,,,,,,,,,,,,,,,,,,,,,,,,,,,,,,,,,,,,0,0,0,0,1,,,,,,,,,,,,,,,,,,,,,,,,,,,,,,,,,,,,,,,,,,,,,,,,,,,,,,,,,,,,,,,
,,10,001,2023-05-08_11h52.19.380,Experiment_Tuerk,2022.2.4,MacIntel,62.5,,,,,,,,,,,,,,,,,,,,,,,,,,,,,,,,,0,3,3,2,1,0,0,1,0,,,,,,,,,,,,,,,,,,,,,,,,,,,,,,,,,,,,,,,,,,,,,,,,,,,,,,,,,,,,,,,,,,,,,,,,,,,,,,,,,,,,,,,,,,,,,,,,,,,,,,,,,,,,,,,,,,,,,,,,,
,,10,001,2023-05-08_11h52.19.380,Experiment_Tuerk,2022.2.4,MacIntel,62.5,,,,,,,,,,,,,,,,,,,,,,,,,,,,,,,,,,,,,,,,,,,,,,,,,,,,,,,,,,,,,,,,,,,,,,,,,,,,,,,,,,,,,,,,,,,,,,,,,,,,,,,,,,,,,,,,,,,,,,,,,,,,,,,,,,,,,,,,,,,,,,,,,,,,,,,,,,,,,,,,,,
,,10,001,2023-05-08_11h52.19.380,Experiment_Tuerk,2022.2.4,MacIntel,62.5,,,,,,,,,,,,,,,,,,,,,,,,,,,,,,,,,,,,,,,,,,,,,,,,,,,,,,,,,,,,,,,,,,,,,,,,,,,,,,,,,,,,,,,,,,,,,,,,,,,,space,31.595,,,,,,,,,,,,,,,,,,,,,,,,,,,,,,,,,,,,,,,,,,,,,,,,,,,,,,,,,,,,,
,,10,001,2023-05-08_11h52.19.380,Experiment_Tuerk,2022.2.4,MacIntel,62.5,,,,,,,,,,,,,,,,,,,,,,,,,,,,,,,,,,,,,,,,,,,,,,,,,,,,,,,,,,,,,,,,,,,,,,,,,,,,,,,,,,,,,,,,,,,,,,,,,,,,,,space,33.127,,,,,,,,,,,,,,,,,,,,,,,,,,,,,,,,,,,,,,,,,,,,,,,,,,,,,,,,,,,
,,10,001,2023-05-08_11h52.19.380,Experiment_Tuerk,2022.2.4,MacIntel,62.5,,,,,,,,,,,,,,,,,,,,,,,,,,,,,,,,,,,,,,,,,,,,,,,,,,,,,,,,,,,,,,,,,,,,,,,,,,,,,,,,,,,,,,,,,,,,,,,,,,,,,,,,space,22.145,,,,,,,,,,,,,,,,,,,,,,,,,,,,,,,,,,,,,,,,,,,,,,,,,,,,,,,,,
,,10,001,2023-05-08_11h52.19.380,Experiment_Tuerk,2022.2.4,MacIntel,62.5,,,,,,,,,,,,,,,,,,,,,,,,,,,,,,,,,,,,,,,,,,,,,,,,,,,,,,,,,,,,,,,,,,,,,,,,,,,,,,,,,,,,,,,,,,,,,,,,,,,,,,,,,,space,7.297,,,,,,,,,,,,,,,,,,,,,,,,,,,,,,,,,,,,,,,,,,,,,,,,,,,,,,,
,,10,001,2023-05-08_11h52.19.380,Experiment_Tuerk,2022.2.4,MacIntel,62.5,,,,,,,,,,,,,,,,,,,,,,,,,,,,,,,,,,,,,,,,,,,,,,,,,,,,,,,,,,,,,,,,,,,,,,,,,,,,,,,,,,,,,,,,,,,,,,,,,,,,,,,,,,,,space,248.181,,,,,,,,,,,,,,,,,,,,,,,,,,,,,,,,,,,,,,,,,,,,,,,,,,,,,
,,10,001,2023-05-08_11h52.19.380,Experiment_Tuerk,2022.2.4,MacIntel,62.5,,,,,,,,,,,,,,,,,,,,,,,,,,,,,,,,,,,,,,,,,,,,,,,,,,,,,,,,,,,,,,,,,,,,,,,,,,,,,,,,,,,,,,,,,,,,,,,,,,,,,,,,,,,,,,space,7.601,,,,,,,,,,,,,,,,,,,,,,,,,,,,,,,,,,,,,,,,,,,,,,,,,,,
,,10,001,2023-05-08_11h52.19.380,Experiment_Tuerk,2022.2.4,MacIntel,62.5,,,,,,,,,,,,,,,,,,,,,,,,,,,,,,,,,,,,,,,,,,,,,,,,,,,,,,,,,,,,,,,,,,,,,,,,,,,,,,,,,,,,,,,,,,,,,,,,,,,,,,,,,,,,,,,,space,31.447,,0,,,0,0,0,0,1,1,Practice,Practice_N,ｵ,ｺ,right,loss,c,Stimuli/Practice/Mango.jpg,1,1,neg,A,,,,,,,,,,,,,,,,,,,,,,,,,,,
,,10,001,2023-05-08_11h52.19.380,Experiment_Tuerk,2022.2.4,MacIntel,62.5,,,,,,,,,,,,,,,,,,,,,,,,,,,,,,,,,,,,,,,,,,,,,,,,,,,,,,,,,,,,,,,,,,,,,,,,,,,,,,,,,,,,,,,,,,,,,,,,,,,,,,,,,,,,,,,,,,,0,,,0,1,1,1,1,2,Practice,Practice_N,ｵ,ｺ,right,nl,c,Stimuli/Practice/PenStand.jpg,2,0,neg,A,,,,,,,,,,,,,,,,,,,,,,,,,,,
,,10,001,2023-05-08_11h52.19.380,Experiment_Tuerk,2022.2.4,MacIntel,62.5,,,,,,,,,,,,,,,,,,,,,,,,,,,,,,,,,,,,,,,,,,,,,,,,,,,,,,,,,,,,,,,,,,,,,,,,,,,,,,,,,,,,,,,,,,,,,,,,,,,,,,,,,,,,,,,,,,m,0,,,0,2,2,2,1,3,Practice,Practice_N,ｺ,ｵ,left,loss,c,Stimuli/Practice/Coatrack.jpg,3,1,neg,A,0.054,,,,,,,,,,,,,,,,,,,,,,,,,,
,,10,001,2023-05-08_11h52.19.380,Experiment_Tuerk,2022.2.4,MacIntel,62.5,,,,,,,,,,,,,,,,,,,,,,,,,,,,,,,,,,,,,,,,,,,,,,,,,,,,,,,,,,,,,,,,,,,,,,,,,,,,,,,,,,,,,,,,,,,,,,,,,,,,,,,,,,,,,,,,,,,0,,,0,3,3,3,1,4,Practice,Practice_N,ｵ,ｺ,right,loss,c,Stimuli/Practice/ChewingGum.jpg,4,1,neg,A,,,,,,,,,,,,,,,,,,,,,,,,,,,
,,10,001,2023-05-08_11h52.19.380,Experiment_Tuerk,2022.2.4,MacIntel,62.5,,,,,,,,,,,,,,,,,,,,,,,,,,,,,,,,,,,,,,,,,,,,,,,,,,,,,,,,,,,,,,,,,,,,,,,,,,,,,,,,,,,,,,,,,,,,,,,,,,,,,,,,,,,,,,,,,,,0,,,0,4,4,4,1,5,Practice,Practice_N,ｺ,ｵ,right,nl,m,Stimuli/Practice/Gauge.jpg,5,1,neg,A,,,,,,,,,,,,,,,,,,,,,,,,,,,
,,10,001,2023-05-08_11h52.19.380,Experiment_Tuerk,2022.2.4,MacIntel,62.5,,,,,,,,,,,,,,,,,,,,,,,,,,,,,,,,,,,,,,,,,,,,,,,,,,,,,,,,,,,,,,,,,,,,,,,,,,,,,,,,,,,,,,,,,,,,,,,,,,,,,,,,,,,,,,,,,,c,0,,,0,5,5,5,1,6,Practice,Practice_N,ｵ,ｺ,left,loss,m,Stimuli/Practice/Canteen.jpg,6,0,neg,A,0.005,,,,,,,,,,,,,,,,,,,,,,,,,,
,,10,001,2023-05-08_11h52.19.380,Experiment_Tuerk,2022.2.4,MacIntel,62.5,,,,,,,,,,,,,,,,,,,,,,,,,,,,,,,,,,,,,,,,,,,,,,,,,,,,,,,,,,,,,,,,,,,,,,,,,,,,,,,,,,,,,,,,,,,,,,,,,,,,,,,,,,,,,,,,,,,0,,,0,6,6,6,1,7,Practice,Practice_N,ｺ,ｵ,right,nl,m,Stimuli/Practice/Golf_Bag.jpg,7,1,neg,A,,,,,,,,,,,,,,,,,,,,,,,,,,,
,,10,001,2023-05-08_11h52.19.380,Experiment_Tuerk,2022.2.4,MacIntel,62.5,,,,,,,,,,,,,,,,,,,,,,,,,,,,,,,,,,,,,,,,,,,,,,,,,,,,,,,,,,,,,,,,,,,,,,,,,,,,,,,,,,,,,,,,,,,,,,,,,,,,,,,,,,,,,,,,,,,0,,,0,7,7,7,1,8,Practice,Practice_N,ｺ,ｵ,right,loss,m,Stimuli/Practice/Fork_Fondue.jpg,8,0,neg,A,,,,,,,,,,,,,,,,,,,,,,,,,,,
,,10,001,2023-05-08_11h52.19.380,Experiment_Tuerk,2022.2.4,MacIntel,62.5,,,,,,,,,,,,,,,,,,,,,,,,,,,,,,,,,,,,,,,,,,,,,,,,,,,,,,,,,,,,,,,,,,,,,,,,,,,,,,,,,,,,,,,,,,,,,,,,,,,,,,,,,,,,,,,,,,,0,,,0,8,8,8,1,9,Practice,Practice_N,ｵ,ｺ,right,loss,c,Stimuli/Practice/Toy_BlocksMultiShape.jpg,9,1,neg,A,,,,,,,,,,,,,,,,,,,,,,,,,,,
,,10,001,2023-05-08_11h52.19.380,Experiment_Tuerk,2022.2.4,MacIntel,62.5,,,,,,,,,,,,,,,,,,,,,,,,,,,,,,,,,,,,,,,,,,,,,,,,,,,,,,,,,,,,,,,,,,,,,,,,,,,,,,,,,,,,,,,,,,,,,,,,,,,,,,,,,,,,,,,,,,m,1,,,0,9,9,9,1,10,Practice,Practice_N,ｺ,ｵ,right,nl,m,Stimuli/Practice/Garbage_GreenBin.jpg,10,1,neg,A,1,,,,,,,,,,,,,,,,,,,,,,,,,,
,,10,001,2023-05-08_11h52.19.380,Experiment_Tuerk,2022.2.4,MacIntel,62.5,,,,,,,,,,,,,,,,,,,,,,,,,,,,,,,,,,,,,,,,,,,,,,,,,,,,,,,,,,,,,,,,,,,,,,,,,,,,,,,,,,,,,,,,,,,,,,,,,,,,,,,,,,,,,,,,,,,0,,,0,10,10,10,1,11,Practice,Practice_N,ｵ,ｺ,left,nl,m,Stimuli/Practice/OnionRed.jpg,11,1,neg,A,,,,,,,,,,,,,,,,,,,,,,,,,,,
,,10,001,2023-05-08_11h52.19.380,Experiment_Tuerk,2022.2.4,MacIntel,62.5,,,,,,,,,,,,,,,,,,,,,,,,,,,,,,,,,,,,,,,,,,,,,,,,,,,,,,,,,,,,,,,,,,,,,,,,,,,,,,,,,,,,,,,,,,,,,,,,,,,,,,,,,,,,,,,,,,,0,,,0,11,11,11,1,12,Practice,Practice_N,ｵ,ｺ,left,nl,m,Stimuli/Practice/Stovetop.jpg,12,1,neg,A,,,,,,,,,,,,,,,,,,,,,,,,,,,
,,10,001,2023-05-08_11h52.19.380,Experiment_Tuerk,2022.2.4,MacIntel,62.5,,,,,,,,,,,,,,,,,,,,,,,,,,,,,,,,,,,,,,,,,,,,,,,,,,,,,,,,,,,,,,,,,,,,,,,,,,,,,,,,,,,,,,,,,,,,,,,,,,,,,,,,,,,,,,,,,,,0,,,0,12,12,12,1,13,Practice,Practice_N,ｵ,ｺ,left,nl,m,Stimuli/Practice/LeatherPuncherTool.jpg,13,1,neg,A,,,,,,,,,,,,,,,,,,,,,,,,,,,
,,10,001,2023-05-08_11h52.19.380,Experiment_Tuerk,2022.2.4,MacIntel,62.5,,,,,,,,,,,,,,,,,,,,,,,,,,,,,,,,,,,,,,,,,,,,,,,,,,,,,,,,,,,,,,,,,,,,,,,,,,,,,,,,,,,,,,,,,,,,,,,,,,,,,,,,,,,,,,,,,,,0,,,0,13,13,13,1,14,Practice,Practice_N,ｺ,ｵ,left,nl,c,Stimuli/Practice/FireAlarm.jpg,14,0,neg,A,,,,,,,,,,,,,,,,,,,,,,,,,,,
,,10,001,2023-05-08_11h52.19.380,Experiment_Tuerk,2022.2.4,MacIntel,62.5,,,,,,,,,,,,,,,,,,,,,,,,,,,,,,,,,,,,,,,,,,,,,,,,,,,,,,,,,,,,,,,,,,,,,,,,,,,,,,,,,,,,,,,,,,,,,,,,,,,,,,,,,,,,,,,,,,,0,,,0,14,14,14,1,15,Practice,Practice_N,ｵ,ｺ,right,loss,c,Stimuli/Practice/Shoes_Snowboarding.jpg,15,1,neg,A,,,,,,,,,,,,,,,,,,,,,,,,,,,
,,10,001,2023-05-08_11h52.19.380,Experiment_Tuerk,2022.2.4,MacIntel,62.5,,,,,,,,,,,,,,,,,,,,,,,,,,,,,,,,,,,,,,,,,,,,,,,,,,,,,,,,,,,,,,,,,,,,,,,,,,,,,,,,,,,,,,,,,,,,,,,,,,,,,,,,,,,,,,,,,,,0,,,0,15,15,15,1,16,Practice,Practice_N,ｺ,ｵ,left,nl,c,Stimuli/Practice/CarJack.jpg,16,0,neg,A,,,,,,,,,,,,,,,,,,,,,,,,,,,
,,10,001,2023-05-08_11h52.19.380,Experiment_Tuerk,2022.2.4,MacIntel,62.5,,,,,,,,,,,,,,,,,,,,,,,,,,,,,,,,,,,,,,,,,,,,,,,,,,,,,,,,,,,,,,,,,,,,,,,,,,,,,,,,,,,,,,,,,,,,,,,,,,,,,,,,,,,,,,,,,,,0,,,0,16,16,16,1,17,Practice,Practice_N,ｵ,ｺ,right,nl,c,Stimuli/Practice/Pen_Calligraphy.jpg,17,0,neg,A,,,,,,,,,,,,,,,,,,,,,,,,,,,
,,10,001,2023-05-08_11h52.19.380,Experiment_Tuerk,2022.2.4,MacIntel,62.5,,,,,,,,,,,,,,,,,,,,,,,,,,,,,,,,,,,,,,,,,,,,,,,,,,,,,,,,,,,,,,,,,,,,,,,,,,,,,,,,,,,,,,,,,,,,,,,,,,,,,,,,,,,,,,,,,,,0,,,0,17,17,17,1,18,Practice,Practice_N,ｺ,ｵ,left,loss,c,Stimuli/Practice/Container_Tupperware.jpg,18,1,neg,A,,,,,,,,,,,,,,,,,,,,,,,,,,,
,,10,001,2023-05-08_11h52.19.380,Experiment_Tuerk,2022.2.4,MacIntel,62.5,,,,,,,,,,,,,,,,,,,,,,,,,,,,,,,,,,,,,,,,,,,,,,,,,,,,,,,,,,,,,,,,,,,,,,,,,,,,,,,,,,,,,,,,,,,,,,,,,,,,,,,,,,,,,,,,,,,0,,,0,18,18,18,1,19,Practice,Practice_N,ｺ,ｵ,left,loss,c,Stimuli/Practice/ClothCoaster.jpg,19,1,neg,A,,,,,,,,,,,,,,,,,,,,,,,,,,,
,,10,001,2023-05-08_11h52.19.380,Experiment_Tuerk,2022.2.4,MacIntel,62.5,,,,,,,,,,,,,,,,,,,,,,,,,,,,,,,,,,,,,,,,,,,,,,,,,,,,,,,,,,,,,,,,,,,,,,,,,,,,,,,,,,,,,,,,,,,,,,,,,,,,,,,,,,,,,,,,,,,0,,,0,19,19,19,1,20,Practice,Practice_N,ｵ,ｺ,left,nl,m,Stimuli/Practice/Kneepad.jpg,20,1,neg,A,,,,,,,,,,,,,,,,,,,,,,,,,,,
,,10,001,2023-05-08_11h52.19.380,Experiment_Tuerk,2022.2.4,MacIntel,62.5,,,,,,,,,,,,,,,,,,,,,,,,,,,,,,,,,,,,,,,,,,,,,,,,,,,,,,,,,,,,,,,,,,,,,,,,,,,,,,,,,,,,,,,,,,,,,,,,,,,,,,,,,,,,,,,,,,,0,,,0,20,20,20,1,21,Practice,Practice_N,ｺ,ｵ,right,loss,m,Stimuli/Practice/Dill.jpg,21,0,neg,A,,,,,,,,,,,,,,,,,,,,,,,,,,,
,,10,001,2023-05-08_11h52.19.380,Experiment_Tuerk,2022.2.4,MacIntel,62.5,,,,,,,,,,,,,,,,,,,,,,,,,,,,,,,,,,,,,,,,,,,,,,,,,,,,,,,,,,,,,,,,,,,,,,,,,,,,,,,,,,,,,,,,,,,,,,,,,,,,,,,,,,,,,,,,,,,0,,,0,21,21,21,1,22,Practice,Practice_N,ｵ,ｺ,left,nl,m,Stimuli/Practice/Clock_Radio.jpg,22,1,neg,A,,,,,,,,,,,,,,,,,,,,,,,,,,,
,,10,001,2023-05-08_11h52.19.380,Experiment_Tuerk,2022.2.4,MacIntel,62.5,,,,,,,,,,,,,,,,,,,,,,,,,,,,,,,,,,,,,,,,,,,,,,,,,,,,,,,,,,,,,,,,,,,,,,,,,,,,,,,,,,,,,,,,,,,,,,,,,,,,,,,,,,,,,,,,,,,0,,,0,22,22,22,1,23,Practice,Practice_N,ｵ,ｺ,left,nl,m,Stimuli/Practice/Pajamas.jpg,23,1,neg,A,,,,,,,,,,,,,,,,,,,,,,,,,,,
,,10,001,2023-05-08_11h52.19.380,Experiment_Tuerk,2022.2.4,MacIntel,62.5,,,,,,,,,,,,,,,,,,,,,,,,,,,,,,,,,,,,,,,,,,,,,,,,,,,,,,,,,,,,,,,,,,,,,,,,,,,,,,,,,,,,,,,,,,,,,,,,,,,,,,,,,,,,,,,,,,,0,,,0,23,23,23,1,24,Practice,Practice_N,ｵ,ｺ,right,loss,c,Stimuli/Practice/SoapBottle.jpg,24,1,neg,A,,,,,,,,,,,,,,,,,,,,,,,,,,,
,,10,001,2023-05-08_11h52.19.380,Experiment_Tuerk,2022.2.4,MacIntel,62.5,,,,,,,,,,,,,,,,,,,,,,,,,,,,,,,,,,,,,,,,,,,,,,,,,,,,,,,,,,,,,,,,,,,,,,,,,,,,,,,,,,,,,,,,,,,,,,,,,,,,,,,,,,,,,,,,,,,0,,,0,24,24,24,1,25,Practice,Practice_N,ｺ,ｵ,left,loss,c,Stimuli/Practice/ChessPiece_Bishop.jpg,25,1,neg,A,,,,,,,,,,,,,,,,,,,,,,,,,,,
,,10,001,2023-05-08_11h52.19.380,Experiment_Tuerk,2022.2.4,MacIntel,62.5,,,,,,,,,,,,,,,,,,,,,,,,,,,,,,,,,,,,,,,,,,,,,,,,,,,,,,,,,,,,,,,,,,,,,,,,,,,,,,,,,,,,,,,,,,,,,,,,,,,,,,,,,,,,,,,,,,,0,,,0,25,25,25,1,26,Practice,Practice_N,ｵ,ｺ,right,loss,c,Stimuli/Practice/ToothbrushHolder.jpg,26,1,neg,A,,,,,,,,,,,,,,,,,,,,,,,,,,,
,,10,001,2023-05-08_11h52.19.380,Experiment_Tuerk,2022.2.4,MacIntel,62.5,,,,,,,,,,,,,,,,,,,,,,,,,,,,,,,,,,,,,,,,,,,,,,,,,,,,,,,,,,,,,,,,,,,,,,,,,,,,,,,,,,,,,,,,,,,,,,,,,,,,,,,,,,,,,,,,,,,0,,,0,26,26,26,1,27,Practice,Practice_N,ｺ,ｵ,left,loss,c,Stimuli/Practice/BicycleBrake.jpg,27,1,neg,A,,,,,,,,,,,,,,,,,,,,,,,,,,,
,,10,001,2023-05-08_11h52.19.380,Experiment_Tuerk,2022.2.4,MacIntel,62.5,,,,,,,,,,,,,,,,,,,,,,,,,,,,,,,,,,,,,,,,,,,,,,,,,,,,,,,,,,,,,,,,,,,,,,,,,,,,,,,,,,,,,,,,,,,,,,,,,,,,,,,,,,,,,,,,,,m,1,,,0,27,27,27,1,28,Practice,Practice_N,ｺ,ｵ,right,nl,m,Stimuli/Practice/Grill_Electric.jpg,28,1,neg,A,0.037,,,,,,,,,,,,,,,,,,,,,,,,,,
,,10,001,2023-05-08_11h52.19.380,Experiment_Tuerk,2022.2.4,MacIntel,62.5,,,,,,,,,,,,,,,,,,,,,,,,,,,,,,,,,,,,,,,,,,,,,,,,,,,,,,,,,,,,,,,,,,,,,,,,,,,,,,,,,,,,,,,,,,,,,,,,,,,,,,,,,,,,,,,,,,,0,,,0,28,28,28,1,29,Practice,Practice_N,ｵ,ｺ,left,loss,m,Stimuli/Practice/Heater_Outdoor.jpg,29,0,neg,A,,,,,,,,,,,,,,,,,,,,,,,,,,,
,,10,001,2023-05-08_11h52.19.380,Experiment_Tuerk,2022.2.4,MacIntel,62.5,,,,,,,,,,,,,,,,,,,,,,,,,,,,,,,,,,,,,,,,,,,,,,,,,,,,,,,,,,,,,,,,,,,,,,,,,,,,,,,,,,,,,,,,,,,,,,,,,,,,,,,,,,,,,,,,,,,0,,,0,29,29,29,1,30,Practice,Practice_N,ｺ,ｵ,right,nl,m,Stimuli/Practice/CrepeMaker.jpg,30,1,neg,A,,,,,,,,,,,,,,,,,,,,,,,,,,,
,,10,001,2023-05-08_11h52.19.380,Experiment_Tuerk,2022.2.4,MacIntel,62.5,,,,,,,,,,,,,,,,,,,,,,,,,,,,,,,,,,,,,,,,,,,,,,,,,,,,,,,,,,,,,,,,,,,,,,,,,,,,,,,,,,,,,,,,,,,,,,,,,,,,,,,,,,,,,,,,,,m,0,,,0,30,30,30,1,31,Practice,Practice_N,ｺ,ｵ,left,loss,c,Stimuli/Practice/BicyclePedal.jpg,31,1,neg,A,0.487,,,,,,,,,,,,,,,,,,,,,,,,,,
,,10,001,2023-05-08_11h52.19.380,Experiment_Tuerk,2022.2.4,MacIntel,62.5,,,,,,,,,,,,,,,,,,,,,,,,,,,,,,,,,,,,,,,,,,,,,,,,,,,,,,,,,,,,,,,,,,,,,,,,,,,,,,,,,,,,,,,,,,,,,,,,,,,,,,,,,,,,,,,,,,,0,space,,0,31,31,31,1,32,Practice,Practice_N,ｺ,ｵ,right,nl,m,Stimuli/Practice/GrillRack.jpg,32,1,neg,A,,12.116,,,,,,,,,,,,,,,,,,,,,,,,,
,,10,001,2023-05-08_11h52.19.380,Experiment_Tuerk,2022.2.4,MacIntel,62.5,,,,,,,,,,,,,,,,,,,,,,,,,,,,,,,,,,,,,,,,,,,,,,,,,,,,,,,,,,,,,,,,,,,,,,,,,,,,,,,,,,,,,,,,,,,,,,,,,,,,,,,,,,,,,,,,,,,0,,,1,0,32,0,1,1,Practice,Practice_N,ｵ,ｺ,right,loss,c,Stimuli/Practice/Mango.jpg,1,1,neg,A,,,,,,,,,,,,,,,,,,,,,,,,,,,
,,10,001,2023-05-08_11h52.19.380,Experiment_Tuerk,2022.2.4,MacIntel,62.5,,,,,,,,,,,,,,,,,,,,,,,,,,,,,,,,,,,,,,,,,,,,,,,,,,,,,,,,,,,,,,,,,,,,,,,,,,,,,,,,,,,,,,,,,,,,,,,,,,,,,,,,,,,,,,,,,,,0,,,1,1,33,1,1,2,Practice,Practice_N,ｵ,ｺ,right,nl,c,Stimuli/Practice/PenStand.jpg,2,0,neg,A,,,,,,,,,,,,,,,,,,,,,,,,,,,
,,10,001,2023-05-08_11h52.19.380,Experiment_Tuerk,2022.2.4,MacIntel,62.5,,,,,,,,,,,,,,,,,,,,,,,,,,,,,,,,,,,,,,,,,,,,,,,,,,,,,,,,,,,,,,,,,,,,,,,,,,,,,,,,,,,,,,,,,,,,,,,,,,,,,,,,,,,,,,,,,,,0,,,1,2,34,2,1,3,Practice,Practice_N,ｺ,ｵ,left,loss,c,Stimuli/Practice/Coatrack.jpg,3,1,neg,A,,,,,,,,,,,,,,,,,,,,,,,,,,,
,,10,001,2023-05-08_11h52.19.380,Experiment_Tuerk,2022.2.4,MacIntel,62.5,,,,,,,,,,,,,,,,,,,,,,,,,,,,,,,,,,,,,,,,,,,,,,,,,,,,,,,,,,,,,,,,,,,,,,,,,,,,,,,,,,,,,,,,,,,,,,,,,,,,,,,,,,,,,,,,,,,0,,,1,3,35,3,1,4,Practice,Practice_N,ｵ,ｺ,right,loss,c,Stimuli/Practice/ChewingGum.jpg,4,1,neg,A,,,,,,,,,,,,,,,,,,,,,,,,,,,
,,10,001,2023-05-08_11h52.19.380,Experiment_Tuerk,2022.2.4,MacIntel,62.5,,,,,,,,,,,,,,,,,,,,,,,,,,,,,,,,,,,,,,,,,,,,,,,,,,,,,,,,,,,,,,,,,,,,,,,,,,,,,,,,,,,,,,,,,,,,,,,,,,,,,,,,,,,,,,,,,,c,0,,,1,4,36,4,1,5,Practice,Practice_N,ｺ,ｵ,right,nl,m,Stimuli/Practice/Gauge.jpg,5,1,neg,A,0.019,,,,,,,,,,,,,,,,,,,,,,,,,,
,,10,001,2023-05-08_11h52.19.380,Experiment_Tuerk,2022.2.4,MacIntel,62.5,,,,,,,,,,,,,,,,,,,,,,,,,,,,,,,,,,,,,,,,,,,,,,,,,,,,,,,,,,,,,,,,,,,,,,,,,,,,,,,,,,,,,,,,,,,,,,,,,,,,,,,,,,,,,,,,,,,0,,,1,5,37,5,1,6,Practice,Practice_N,ｵ,ｺ,left,loss,m,Stimuli/Practice/Canteen.jpg,6,0,neg,A,,,,,,,,,,,,,,,,,,,,,,,,,,,
,,10,001,2023-05-08_11h52.19.380,Experiment_Tuerk,2022.2.4,MacIntel,62.5,,,,,,,,,,,,,,,,,,,,,,,,,,,,,,,,,,,,,,,,,,,,,,,,,,,,,,,,,,,,,,,,,,,,,,,,,,,,,,,,,,,,,,,,,,,,,,,,,,,,,,,,,,,,,,,,,,,0,,,1,6,38,6,1,7,Practice,Practice_N,ｺ,ｵ,right,nl,m,Stimuli/Practice/Golf_Bag.jpg,7,1,neg,A,,,,,,,,,,,,,,,,,,,,,,,,,,,
,,10,001,2023-05-08_11h52.19.380,Experiment_Tuerk,2022.2.4,MacIntel,62.5,,,,,,,,,,,,,,,,,,,,,,,,,,,,,,,,,,,,,,,,,,,,,,,,,,,,,,,,,,,,,,,,,,,,,,,,,,,,,,,,,,,,,,,,,,,,,,,,,,,,,,,,,,,,,,,,,,,0,,,1,7,39,7,1,8,Practice,Practice_N,ｺ,ｵ,right,loss,m,Stimuli/Practice/Fork_Fondue.jpg,8,0,neg,A,,,,,,,,,,,,,,,,,,,,,,,,,,,
,,10,001,2023-05-08_11h52.19.380,Experiment_Tuerk,2022.2.4,MacIntel,62.5,,,,,,,,,,,,,,,,,,,,,,,,,,,,,,,,,,,,,,,,,,,,,,,,,,,,,,,,,,,,,,,,,,,,,,,,,,,,,,,,,,,,,,,,,,,,,,,,,,,,,,,,,,,,,,,,,,,0,,,1,8,40,8,1,9,Practice,Practice_N,ｵ,ｺ,right,loss,c,Stimuli/Practice/Toy_BlocksMultiShape.jpg,9,1,neg,A,,,,,,,,,,,,,,,,,,,,,,,,,,,
,,10,001,2023-05-08_11h52.19.380,Experiment_Tuerk,2022.2.4,MacIntel,62.5,,,,,,,,,,,,,,,,,,,,,,,,,,,,,,,,,,,,,,,,,,,,,,,,,,,,,,,,,,,,,,,,,,,,,,,,,,,,,,,,,,,,,,,,,,,,,,,,,,,,,,,,,,,,,,,,,,m,1,,,1,9,41,9,1,10,Practice,Practice_N,ｺ,ｵ,right,nl,m,Stimuli/Practice/Garbage_GreenBin.jpg,10,1,neg,A,0.168,,,,,,,,,,,,,,,,,,,,,,,,,,
,,10,001,2023-05-08_11h52.19.380,Experiment_Tuerk,2022.2.4,MacIntel,62.5,,,,,,,,,,,,,,,,,,,,,,,,,,,,,,,,,,,,,,,,,,,,,,,,,,,,,,,,,,,,,,,,,,,,,,,,,,,,,,,,,,,,,,,,,,,,,,,,,,,,,,,,,,,,,,,,,,c,0,,,1,10,42,10,1,11,Practice,Practice_N,ｵ,ｺ,left,nl,m,Stimuli/Practice/OnionRed.jpg,11,1,neg,A,0.009,,,,,,,,,,,,,,,,,,,,,,,,,,
,,10,001,2023-05-08_11h52.19.380,Experiment_Tuerk,2022.2.4,MacIntel,62.5,,,,,,,,,,,,,,,,,,,,,,,,,,,,,,,,,,,,,,,,,,,,,,,,,,,,,,,,,,,,,,,,,,,,,,,,,,,,,,,,,,,,,,,,,,,,,,,,,,,,,,,,,,,,,,,,,,m,1,,,1,11,43,11,1,12,Practice,Practice_N,ｵ,ｺ,left,nl,m,Stimuli/Practice/Stovetop.jpg,12,1,neg,A,0,,,,,,,,,,,,,,,,,,,,,,,,,,
,,10,001,2023-05-08_11h52.19.380,Experiment_Tuerk,2022.2.4,MacIntel,62.5,,,,,,,,,,,,,,,,,,,,,,,,,,,,,,,,,,,,,,,,,,,,,,,,,,,,,,,,,,,,,,,,,,,,,,,,,,,,,,,,,,,,,,,,,,,,,,,,,,,,,,,,,,,,,,,,,,m,1,,,1,12,44,12,1,13,Practice,Practice_N,ｵ,ｺ,left,nl,m,Stimuli/Practice/LeatherPuncherTool.jpg,13,1,neg,A,0.087,,,,,,,,,,,,,,,,,,,,,,,,,,
,,10,001,2023-05-08_11h52.19.380,Experiment_Tuerk,2022.2.4,MacIntel,62.5,,,,,,,,,,,,,,,,,,,,,,,,,,,,,,,,,,,,,,,,,,,,,,,,,,,,,,,,,,,,,,,,,,,,,,,,,,,,,,,,,,,,,,,,,,,,,,,,,,,,,,,,,,,,,,,,,,m,0,,,1,13,45,13,1,14,Practice,Practice_N,ｺ,ｵ,left,nl,c,Stimuli/Practice/FireAlarm.jpg,14,0,neg,A,0.087,,,,,,,,,,,,,,,,,,,,,,,,,,
,,10,001,2023-05-08_11h52.19.380,Experiment_Tuerk,2022.2.4,MacIntel,62.5,,,,,,,,,,,,,,,,,,,,,,,,,,,,,,,,,,,,,,,,,,,,,,,,,,,,,,,,,,,,,,,,,,,,,,,,,,,,,,,,,,,,,,,,,,,,,,,,,,,,,,,,,,,,,,,,,,,0,,,1,14,46,14,1,15,Practice,Practice_N,ｵ,ｺ,right,loss,c,Stimuli/Practice/Shoes_Snowboarding.jpg,15,1,neg,A,,,,,,,,,,,,,,,,,,,,,,,,,,,
,,10,001,2023-05-08_11h52.19.380,Experiment_Tuerk,2022.2.4,MacIntel,62.5,,,,,,,,,,,,,,,,,,,,,,,,,,,,,,,,,,,,,,,,,,,,,,,,,,,,,,,,,,,,,,,,,,,,,,,,,,,,,,,,,,,,,,,,,,,,,,,,,,,,,,,,,,,,,,,,,,m,0,,,1,15,47,15,1,16,Practice,Practice_N,ｺ,ｵ,left,nl,c,Stimuli/Practice/CarJack.jpg,16,0,neg,A,0.099,,,,,,,,,,,,,,,,,,,,,,,,,,
,,10,001,2023-05-08_11h52.19.380,Experiment_Tuerk,2022.2.4,MacIntel,62.5,,,,,,,,,,,,,,,,,,,,,,,,,,,,,,,,,,,,,,,,,,,,,,,,,,,,,,,,,,,,,,,,,,,,,,,,,,,,,,,,,,,,,,,,,,,,,,,,,,,,,,,,,,,,,,,,,,,0,,,1,16,48,16,1,17,Practice,Practice_N,ｵ,ｺ,right,nl,c,Stimuli/Practice/Pen_Calligraphy.jpg,17,0,neg,A,,,,,,,,,,,,,,,,,,,,,,,,,,,
,,10,001,2023-05-08_11h52.19.380,Experiment_Tuerk,2022.2.4,MacIntel,62.5,,,,,,,,,,,,,,,,,,,,,,,,,,,,,,,,,,,,,,,,,,,,,,,,,,,,,,,,,,,,,,,,,,,,,,,,,,,,,,,,,,,,,,,,,,,,,,,,,,,,,,,,,,,,,,,,,,c,1,,,1,17,49,17,1,18,Practice,Practice_N,ｺ,ｵ,left,loss,c,Stimuli/Practice/Container_Tupperware.jpg,18,1,neg,A,0.116,,,,,,,,,,,,,,,,,,,,,,,,,,
,,10,001,2023-05-08_11h52.19.380,Experiment_Tuerk,2022.2.4,MacIntel,62.5,,,,,,,,,,,,,,,,,,,,,,,,,,,,,,,,,,,,,,,,,,,,,,,,,,,,,,,,,,,,,,,,,,,,,,,,,,,,,,,,,,,,,,,,,,,,,,,,,,,,,,,,,,,,,,,,,,,0,,,1,18,50,18,1,19,Practice,Practice_N,ｺ,ｵ,left,loss,c,Stimuli/Practice/ClothCoaster.jpg,19,1,neg,A,,,,,,,,,,,,,,,,,,,,,,,,,,,
,,10,001,2023-05-08_11h52.19.380,Experiment_Tuerk,2022.2.4,MacIntel,62.5,,,,,,,,,,,,,,,,,,,,,,,,,,,,,,,,,,,,,,,,,,,,,,,,,,,,,,,,,,,,,,,,,,,,,,,,,,,,,,,,,,,,,,,,,,,,,,,,,,,,,,,,,,,,,,,,,,c,0,,,1,19,51,19,1,20,Practice,Practice_N,ｵ,ｺ,left,nl,m,Stimuli/Practice/Kneepad.jpg,20,1,neg,A,0.117,,,,,,,,,,,,,,,,,,,,,,,,,,
,,10,001,2023-05-08_11h52.19.380,Experiment_Tuerk,2022.2.4,MacIntel,62.5,,,,,,,,,,,,,,,,,,,,,,,,,,,,,,,,,,,,,,,,,,,,,,,,,,,,,,,,,,,,,,,,,,,,,,,,,,,,,,,,,,,,,,,,,,,,,,,,,,,,,,,,,,,,,,,,,,m,1,,,1,20,52,20,1,21,Practice,Practice_N,ｺ,ｵ,right,loss,m,Stimuli/Practice/Dill.jpg,21,0,neg,A,0.1,,,,,,,,,,,,,,,,,,,,,,,,,,
,,10,001,2023-05-08_11h52.19.380,Experiment_Tuerk,2022.2.4,MacIntel,62.5,,,,,,,,,,,,,,,,,,,,,,,,,,,,,,,,,,,,,,,,,,,,,,,,,,,,,,,,,,,,,,,,,,,,,,,,,,,,,,,,,,,,,,,,,,,,,,,,,,,,,,,,,,,,,,,,,,c,0,,,1,21,53,21,1,22,Practice,Practice_N,ｵ,ｺ,left,nl,m,Stimuli/Practice/Clock_Radio.jpg,22,1,neg,A,0.007,,,,,,,,,,,,,,,,,,,,,,,,,,
,,10,001,2023-05-08_11h52.19.380,Experiment_Tuerk,2022.2.4,MacIntel,62.5,,,,,,,,,,,,,,,,,,,,,,,,,,,,,,,,,,,,,,,,,,,,,,,,,,,,,,,,,,,,,,,,,,,,,,,,,,,,,,,,,,,,,,,,,,,,,,,,,,,,,,,,,,,,,,,,,,m,1,,,1,22,54,22,1,23,Practice,Practice_N,ｵ,ｺ,left,nl,m,Stimuli/Practice/Pajamas.jpg,23,1,neg,A,0.169,,,,,,,,,,,,,,,,,,,,,,,,,,
,,10,001,2023-05-08_11h52.19.380,Experiment_Tuerk,2022.2.4,MacIntel,62.5,,,,,,,,,,,,,,,,,,,,,,,,,,,,,,,,,,,,,,,,,,,,,,,,,,,,,,,,,,,,,,,,,,,,,,,,,,,,,,,,,,,,,,,,,,,,,,,,,,,,,,,,,,,,,,,,,,,0,,,1,23,55,23,1,24,Practice,Practice_N,ｵ,ｺ,right,loss,c,Stimuli/Practice/SoapBottle.jpg,24,1,neg,A,,,,,,,,,,,,,,,,,,,,,,,,,,,
,,10,001,2023-05-08_11h52.19.380,Experiment_Tuerk,2022.2.4,MacIntel,62.5,,,,,,,,,,,,,,,,,,,,,,,,,,,,,,,,,,,,,,,,,,,,,,,,,,,,,,,,,,,,,,,,,,,,,,,,,,,,,,,,,,,,,,,,,,,,,,,,,,,,,,,,,,,,,,,,,,c,1,,,1,24,56,24,1,25,Practice,Practice_N,ｺ,ｵ,left,loss,c,Stimuli/Practice/ChessPiece_Bishop.jpg,25,1,neg,A,0.281,,,,,,,,,,,,,,,,,,,,,,,,,,
,,10,001,2023-05-08_11h52.19.380,Experiment_Tuerk,2022.2.4,MacIntel,62.5,,,,,,,,,,,,,,,,,,,,,,,,,,,,,,,,,,,,,,,,,,,,,,,,,,,,,,,,,,,,,,,,,,,,,,,,,,,,,,,,,,,,,,,,,,,,,,,,,,,,,,,,,,,,,,,,,,m,0,,,1,25,57,25,1,26,Practice,Practice_N,ｵ,ｺ,right,loss,c,Stimuli/Practice/ToothbrushHolder.jpg,26,1,neg,A,0.058,,,,,,,,,,,,,,,,,,,,,,,,,,
,,10,001,2023-05-08_11h52.19.380,Experiment_Tuerk,2022.2.4,MacIntel,62.5,,,,,,,,,,,,,,,,,,,,,,,,,,,,,,,,,,,,,,,,,,,,,,,,,,,,,,,,,,,,,,,,,,,,,,,,,,,,,,,,,,,,,,,,,,,,,,,,,,,,,,,,,,,,,,,,,,,0,,,1,26,58,26,1,27,Practice,Practice_N,ｺ,ｵ,left,loss,c,Stimuli/Practice/BicycleBrake.jpg,27,1,neg,A,,,,,,,,,,,,,,,,,,,,,,,,,,,
,,10,001,2023-05-08_11h52.19.380,Experiment_Tuerk,2022.2.4,MacIntel,62.5,,,,,,,,,,,,,,,,,,,,,,,,,,,,,,,,,,,,,,,,,,,,,,,,,,,,,,,,,,,,,,,,,,,,,,,,,,,,,,,,,,,,,,,,,,,,,,,,,,,,,,,,,,,,,,,,,,m,1,,,1,27,59,27,1,28,Practice,Practice_N,ｺ,ｵ,right,nl,m,Stimuli/Practice/Grill_Electric.jpg,28,1,neg,A,0.016,,,,,,,,,,,,,,,,,,,,,,,,,,
,,10,001,2023-05-08_11h52.19.380,Experiment_Tuerk,2022.2.4,MacIntel,62.5,,,,,,,,,,,,,,,,,,,,,,,,,,,,,,,,,,,,,,,,,,,,,,,,,,,,,,,,,,,,,,,,,,,,,,,,,,,,,,,,,,,,,,,,,,,,,,,,,,,,,,,,,,,,,,,,,,m,1,,,1,28,60,28,1,29,Practice,Practice_N,ｵ,ｺ,left,loss,m,Stimuli/Practice/Heater_Outdoor.jpg,29,0,neg,A,0.259,,,,,,,,,,,,,,,,,,,,,,,,,,
,,10,001,2023-05-08_11h52.19.380,Experiment_Tuerk,2022.2.4,MacIntel,62.5,,,,,,,,,,,,,,,,,,,,,,,,,,,,,,,,,,,,,,,,,,,,,,,,,,,,,,,,,,,,,,,,,,,,,,,,,,,,,,,,,,,,,,,,,,,,,,,,,,,,,,,,,,,,,,,,,,,0,,,1,29,61,29,1,30,Practice,Practice_N,ｺ,ｵ,right,nl,m,Stimuli/Practice/CrepeMaker.jpg,30,1,neg,A,,,,,,,,,,,,,,,,,,,,,,,,,,,
,,10,001,2023-05-08_11h52.19.380,Experiment_Tuerk,2022.2.4,MacIntel,62.5,,,,,,,,,,,,,,,,,,,,,,,,,,,,,,,,,,,,,,,,,,,,,,,,,,,,,,,,,,,,,,,,,,,,,,,,,,,,,,,,,,,,,,,,,,,,,,,,,,,,,,,,,,,,,,,,,,,0,,,1,30,62,30,1,31,Practice,Practice_N,ｺ,ｵ,left,loss,c,Stimuli/Practice/BicyclePedal.jpg,31,1,neg,A,,,,,,,,,,,,,,,,,,,,,,,,,,,
,,10,001,2023-05-08_11h52.19.380,Experiment_Tuerk,2022.2.4,MacIntel,62.5,,,,,,,,,,,,,,,,,,,,,,,,,,,,,,,,,,,,,,,,,,,,,,,,,,,,,,,,,,,,,,,,,,,,,,,,,,,,,,,,,,,,,,,,,,,,,,,,,,,,,,,,,,,,,,,,,,c,0,space,,1,31,63,31,1,32,Practice,Practice_N,ｺ,ｵ,right,nl,m,Stimuli/Practice/GrillRack.jpg,32,1,neg,A,0.116,4.521,,,,,,,,,,,,,,,,,,,,,,,,,
,,10,001,2023-05-08_11h52.19.380,Experiment_Tuerk,2022.2.4,MacIntel,62.5,,,,,,,,,,,,,,,,,,,,,,,,,,,,,,,,,,,,,,,,,,,,,,,,,,,,,,,,,,,,,,,,,,,,,,,,,,,,,,,,,,,,,,,,,,,,,,,,,,,,,,,,,,,,,,,,,,m,0,,,2,0,64,0,1,1,Practice,Practice_N,ｵ,ｺ,right,loss,c,Stimuli/Practice/Mango.jpg,1,1,neg,A,0.553,,,,,,,,,,,,,,,,,,,,,,,,,,
,,10,001,2023-05-08_11h52.19.380,Experiment_Tuerk,2022.2.4,MacIntel,62.5,,,,,,,,,,,,,,,,,,,,,,,,,,,,,,,,,,,,,,,,,,,,,,,,,,,,,,,,,,,,,,,,,,,,,,,,,,,,,,,,,,,,,,,,,,,,,,,,,,,,,,,,,,,,,,,,,,,0,,,2,1,65,1,1,2,Practice,Practice_N,ｵ,ｺ,right,nl,c,Stimuli/Practice/PenStand.jpg,2,0,neg,A,,,,,,,,,,,,,,,,,,,,,,,,,,,
,,10,001,2023-05-08_11h52.19.380,Experiment_Tuerk,2022.2.4,MacIntel,62.5,,,,,,,,,,,,,,,,,,,,,,,,,,,,,,,,,,,,,,,,,,,,,,,,,,,,,,,,,,,,,,,,,,,,,,,,,,,,,,,,,,,,,,,,,,,,,,,,,,,,,,,,,,,,,,,,,,m,0,,,2,2,66,2,1,3,Practice,Practice_N,ｺ,ｵ,left,loss,c,Stimuli/Practice/Coatrack.jpg,3,1,neg,A,0.017,,,,,,,,,,,,,,,,,,,,,,,,,,
,,10,001,2023-05-08_11h52.19.380,Experiment_Tuerk,2022.2.4,MacIntel,62.5,,,,,,,,,,,,,,,,,,,,,,,,,,,,,,,,,,,,,,,,,,,,,,,,,,,,,,,,,,,,,,,,,,,,,,,,,,,,,,,,,,,,,,,,,,,,,,,,,,,,,,,,,,,,,,,,,,,0,,,2,3,67,3,1,4,Practice,Practice_N,ｵ,ｺ,right,loss,c,Stimuli/Practice/ChewingGum.jpg,4,1,neg,A,,,,,,,,,,,,,,,,,,,,,,,,,,,
,,10,001,2023-05-08_11h52.19.380,Experiment_Tuerk,2022.2.4,MacIntel,62.5,,,,,,,,,,,,,,,,,,,,,,,,,,,,,,,,,,,,,,,,,,,,,,,,,,,,,,,,,,,,,,,,,,,,,,,,,,,,,,,,,,,,,,,,,,,,,,,,,,,,,,,,,,,,,,,,,,,0,,,2,4,68,4,1,5,Practice,Practice_N,ｺ,ｵ,right,nl,m,Stimuli/Practice/Gauge.jpg,5,1,neg,A,,,,,,,,,,,,,,,,,,,,,,,,,,,
,,10,001,2023-05-08_11h52.19.380,Experiment_Tuerk,2022.2.4,MacIntel,62.5,,,,,,,,,,,,,,,,,,,,,,,,,,,,,,,,,,,,,,,,,,,,,,,,,,,,,,,,,,,,,,,,,,,,,,,,,,,,,,,,,,,,,,,,,,,,,,,,,,,,,,,,,,,,,,,,,,,0,,,2,5,69,5,1,6,Practice,Practice_N,ｵ,ｺ,left,loss,m,Stimuli/Practice/Canteen.jpg,6,0,neg,A,,,,,,,,,,,,,,,,,,,,,,,,,,,
,,10,001,2023-05-08_11h52.19.380,Experiment_Tuerk,2022.2.4,MacIntel,62.5,,,,,,,,,,,,,,,,,,,,,,,,,,,,,,,,,,,,,,,,,,,,,,,,,,,,,,,,,,,,,,,,,,,,,,,,,,,,,,,,,,,,,,,,,,,,,,,,,,,,,,,,,,,,,,,,,,,0,,,2,6,70,6,1,7,Practice,Practice_N,ｺ,ｵ,right,nl,m,Stimuli/Practice/Golf_Bag.jpg,7,1,neg,A,,,,,,,,,,,,,,,,,,,,,,,,,,,
,,10,001,2023-05-08_11h52.19.380,Experiment_Tuerk,2022.2.4,MacIntel,62.5,,,,,,,,,,,,,,,,,,,,,,,,,,,,,,,,,,,,,,,,,,,,,,,,,,,,,,,,,,,,,,,,,,,,,,,,,,,,,,,,,,,,,,,,,,,,,,,,,,,,,,,,,,,,,,,,,,m,1,,,2,7,71,7,1,8,Practice,Practice_N,ｺ,ｵ,right,loss,m,Stimuli/Practice/Fork_Fondue.jpg,8,0,neg,A,0.182,,,,,,,,,,,,,,,,,,,,,,,,,,
,,10,001,2023-05-08_11h52.19.380,Experiment_Tuerk,2022.2.4,MacIntel,62.5,,,,,,,,,,,,,,,,,,,,,,,,,,,,,,,,,,,,,,,,,,,,,,,,,,,,,,,,,,,,,,,,,,,,,,,,,,,,,,,,,,,,,,,,,,,,,,,,,,,,,,,,,,,,,,,,,,,0,,,2,8,72,8,1,9,Practice,Practice_N,ｵ,ｺ,right,loss,c,Stimuli/Practice/Toy_BlocksMultiShape.jpg,9,1,neg,A,,,,,,,,,,,,,,,,,,,,,,,,,,,
,,10,001,2023-05-08_11h52.19.380,Experiment_Tuerk,2022.2.4,MacIntel,62.5,,,,,,,,,,,,,,,,,,,,,,,,,,,,,,,,,,,,,,,,,,,,,,,,,,,,,,,,,,,,,,,,,,,,,,,,,,,,,,,,,,,,,,,,,,,,,,,,,,,,,,,,,,,,,,,,,,m,1,,,2,9,73,9,1,10,Practice,Practice_N,ｺ,ｵ,right,nl,m,Stimuli/Practice/Garbage_GreenBin.jpg,10,1,neg,A,0.034,,,,,,,,,,,,,,,,,,,,,,,,,,
,,10,001,2023-05-08_11h52.19.380,Experiment_Tuerk,2022.2.4,MacIntel,62.5,,,,,,,,,,,,,,,,,,,,,,,,,,,,,,,,,,,,,,,,,,,,,,,,,,,,,,,,,,,,,,,,,,,,,,,,,,,,,,,,,,,,,,,,,,,,,,,,,,,,,,,,,,,,,,,,,,c,0,,,2,10,74,10,1,11,Practice,Practice_N,ｵ,ｺ,left,nl,m,Stimuli/Practice/OnionRed.jpg,11,1,neg,A,0,,,,,,,,,,,,,,,,,,,,,,,,,,
,,10,001,2023-05-08_11h52.19.380,Experiment_Tuerk,2022.2.4,MacIntel,62.5,,,,,,,,,,,,,,,,,,,,,,,,,,,,,,,,,,,,,,,,,,,,,,,,,,,,,,,,,,,,,,,,,,,,,,,,,,,,,,,,,,,,,,,,,,,,,,,,,,,,,,,,,,,,,,,,,,m,1,,,2,11,75,11,1,12,Practice,Practice_N,ｵ,ｺ,left,nl,m,Stimuli/Practice/Stovetop.jpg,12,1,neg,A,0.066,,,,,,,,,,,,,,,,,,,,,,,,,,
,,10,001,2023-05-08_11h52.19.380,Experiment_Tuerk,2022.2.4,MacIntel,62.5,,,,,,,,,,,,,,,,,,,,,,,,,,,,,,,,,,,,,,,,,,,,,,,,,,,,,,,,,,,,,,,,,,,,,,,,,,,,,,,,,,,,,,,,,,,,,,,,,,,,,,,,,,,,,,,,,,c,0,,,2,12,76,12,1,13,Practice,Practice_N,ｵ,ｺ,left,nl,m,Stimuli/Practice/LeatherPuncherTool.jpg,13,1,neg,A,1.068,,,,,,,,,,,,,,,,,,,,,,,,,,
,,10,001,2023-05-08_11h52.19.380,Experiment_Tuerk,2022.2.4,MacIntel,62.5,,,,,,,,,,,,,,,,,,,,,,,,,,,,,,,,,,,,,,,,,,,,,,,,,,,,,,,,,,,,,,,,,,,,,,,,,,,,,,,,,,,,,,,,,,,,,,,,,,,,,,,,,,,,,,,,,,m,0,,,2,13,77,13,1,14,Practice,Practice_N,ｺ,ｵ,left,nl,c,Stimuli/Practice/FireAlarm.jpg,14,0,neg,A,0.108,,,,,,,,,,,,,,,,,,,,,,,,,,
,,10,001,2023-05-08_11h52.19.380,Experiment_Tuerk,2022.2.4,MacIntel,62.5,,,,,,,,,,,,,,,,,,,,,,,,,,,,,,,,,,,,,,,,,,,,,,,,,,,,,,,,,,,,,,,,,,,,,,,,,,,,,,,,,,,,,,,,,,,,,,,,,,,,,,,,,,,,,,,,,,c,1,,,2,14,78,14,1,15,Practice,Practice_N,ｵ,ｺ,right,loss,c,Stimuli/Practice/Shoes_Snowboarding.jpg,15,1,neg,A,0.032,,,,,,,,,,,,,,,,,,,,,,,,,,
,,10,001,2023-05-08_11h52.19.380,Experiment_Tuerk,2022.2.4,MacIntel,62.5,,,,,,,,,,,,,,,,,,,,,,,,,,,,,,,,,,,,,,,,,,,,,,,,,,,,,,,,,,,,,,,,,,,,,,,,,,,,,,,,,,,,,,,,,,,,,,,,,,,,,,,,,,,,,,,,,,,0,,,2,15,79,15,1,16,Practice,Practice_N,ｺ,ｵ,left,nl,c,Stimuli/Practice/CarJack.jpg,16,0,neg,A,,,,,,,,,,,,,,,,,,,,,,,,,,,
,,10,001,2023-05-08_11h52.19.380,Experiment_Tuerk,2022.2.4,MacIntel,62.5,,,,,,,,,,,,,,,,,,,,,,,,,,,,,,,,,,,,,,,,,,,,,,,,,,,,,,,,,,,,,,,,,,,,,,,,,,,,,,,,,,,,,,,,,,,,,,,,,,,,,,,,,,,,,,,,,,c,1,,,2,16,80,16,1,17,Practice,Practice_N,ｵ,ｺ,right,nl,c,Stimuli/Practice/Pen_Calligraphy.jpg,17,0,neg,A,0,,,,,,,,,,,,,,,,,,,,,,,,,,
,,10,001,2023-05-08_11h52.19.380,Experiment_Tuerk,2022.2.4,MacIntel,62.5,,,,,,,,,,,,,,,,,,,,,,,,,,,,,,,,,,,,,,,,,,,,,,,,,,,,,,,,,,,,,,,,,,,,,,,,,,,,,,,,,,,,,,,,,,,,,,,,,,,,,,,,,,,,,,,,,,,0,,,2,17,81,17,1,18,Practice,Practice_N,ｺ,ｵ,left,loss,c,Stimuli/Practice/Container_Tupperware.jpg,18,1,neg,A,,,,,,,,,,,,,,,,,,,,,,,,,,,
,,10,001,2023-05-08_11h52.19.380,Experiment_Tuerk,2022.2.4,MacIntel,62.5,,,,,,,,,,,,,,,,,,,,,,,,,,,,,,,,,,,,,,,,,,,,,,,,,,,,,,,,,,,,,,,,,,,,,,,,,,,,,,,,,,,,,,,,,,,,,,,,,,,,,,,,,,,,,,,,,,,0,,,2,18,82,18,1,19,Practice,Practice_N,ｺ,ｵ,left,loss,c,Stimuli/Practice/ClothCoaster.jpg,19,1,neg,A,,,,,,,,,,,,,,,,,,,,,,,,,,,
,,10,001,2023-05-08_11h52.19.380,Experiment_Tuerk,2022.2.4,MacIntel,62.5,,,,,,,,,,,,,,,,,,,,,,,,,,,,,,,,,,,,,,,,,,,,,,,,,,,,,,,,,,,,,,,,,,,,,,,,,,,,,,,,,,,,,,,,,,,,,,,,,,,,,,,,,,,,,,,,,,,0,,,2,19,83,19,1,20,Practice,Practice_N,ｵ,ｺ,left,nl,m,Stimuli/Practice/Kneepad.jpg,20,1,neg,A,,,,,,,,,,,,,,,,,,,,,,,,,,,
,,10,001,2023-05-08_11h52.19.380,Experiment_Tuerk,2022.2.4,MacIntel,62.5,,,,,,,,,,,,,,,,,,,,,,,,,,,,,,,,,,,,,,,,,,,,,,,,,,,,,,,,,,,,,,,,,,,,,,,,,,,,,,,,,,,,,,,,,,,,,,,,,,,,,,,,,,,,,,,,,,,0,,,2,20,84,20,1,21,Practice,Practice_N,ｺ,ｵ,right,loss,m,Stimuli/Practice/Dill.jpg,21,0,neg,A,,,,,,,,,,,,,,,,,,,,,,,,,,,
,,10,001,2023-05-08_11h52.19.380,Experiment_Tuerk,2022.2.4,MacIntel,62.5,,,,,,,,,,,,,,,,,,,,,,,,,,,,,,,,,,,,,,,,,,,,,,,,,,,,,,,,,,,,,,,,,,,,,,,,,,,,,,,,,,,,,,,,,,,,,,,,,,,,,,,,,,,,,,,,,,,0,,,2,21,85,21,1,22,Practice,Practice_N,ｵ,ｺ,left,nl,m,Stimuli/Practice/Clock_Radio.jpg,22,1,neg,A,,,,,,,,,,,,,,,,,,,,,,,,,,,
,,10,001,2023-05-08_11h52.19.380,Experiment_Tuerk,2022.2.4,MacIntel,62.5,,,,,,,,,,,,,,,,,,,,,,,,,,,,,,,,,,,,,,,,,,,,,,,,,,,,,,,,,,,,,,,,,,,,,,,,,,,,,,,,,,,,,,,,,,,,,,,,,,,,,,,,,,,,,,,,,,,0,,,2,22,86,22,1,23,Practice,Practice_N,ｵ,ｺ,left,nl,m,Stimuli/Practice/Pajamas.jpg,23,1,neg,A,,,,,,,,,,,,,,,,,,,,,,,,,,,
,,10,001,2023-05-08_11h52.19.380,Experiment_Tuerk,2022.2.4,MacIntel,62.5,,,,,,,,,,,,,,,,,,,,,,,,,,,,,,,,,,,,,,,,,,,,,,,,,,,,,,,,,,,,,,,,,,,,,,,,,,,,,,,,,,,,,,,,,,,,,,,,,,,,,,,,,,,,,,,,,,m,0,,,2,23,87,23,1,24,Practice,Practice_N,ｵ,ｺ,right,loss,c,Stimuli/Practice/SoapBottle.jpg,24,1,neg,A,0.1,,,,,,,,,,,,,,,,,,,,,,,,,,
,,10,001,2023-05-08_11h52.19.380,Experiment_Tuerk,2022.2.4,MacIntel,62.5,,,,,,,,,,,,,,,,,,,,,,,,,,,,,,,,,,,,,,,,,,,,,,,,,,,,,,,,,,,,,,,,,,,,,,,,,,,,,,,,,,,,,,,,,,,,,,,,,,,,,,,,,,,,,,,,,,c,1,,,2,24,88,24,1,25,Practice,Practice_N,ｺ,ｵ,left,loss,c,Stimuli/Practice/ChessPiece_Bishop.jpg,25,1,neg,A,0.171,,,,,,,,,,,,,,,,,,,,,,,,,,
,,10,001,2023-05-08_11h52.19.380,Experiment_Tuerk,2022.2.4,MacIntel,62.5,,,,,,,,,,,,,,,,,,,,,,,,,,,,,,,,,,,,,,,,,,,,,,,,,,,,,,,,,,,,,,,,,,,,,,,,,,,,,,,,,,,,,,,,,,,,,,,,,,,,,,,,,,,,,,,,,,m,0,,,2,25,89,25,1,26,Practice,Practice_N,ｵ,ｺ,right,loss,c,Stimuli/Practice/ToothbrushHolder.jpg,26,1,neg,A,0.052,,,,,,,,,,,,,,,,,,,,,,,,,,
,,10,001,2023-05-08_11h52.19.380,Experiment_Tuerk,2022.2.4,MacIntel,62.5,,,,,,,,,,,,,,,,,,,,,,,,,,,,,,,,,,,,,,,,,,,,,,,,,,,,,,,,,,,,,,,,,,,,,,,,,,,,,,,,,,,,,,,,,,,,,,,,,,,,,,,,,,,,,,,,,,c,1,,,2,26,90,26,1,27,Practice,Practice_N,ｺ,ｵ,left,loss,c,Stimuli/Practice/BicycleBrake.jpg,27,1,neg,A,0.043,,,,,,,,,,,,,,,,,,,,,,,,,,
,,10,001,2023-05-08_11h52.19.380,Experiment_Tuerk,2022.2.4,MacIntel,62.5,,,,,,,,,,,,,,,,,,,,,,,,,,,,,,,,,,,,,,,,,,,,,,,,,,,,,,,,,,,,,,,,,,,,,,,,,,,,,,,,,,,,,,,,,,,,,,,,,,,,,,,,,,,,,,,,,,,0,,,2,27,91,27,1,28,Practice,Practice_N,ｺ,ｵ,right,nl,m,Stimuli/Practice/Grill_Electric.jpg,28,1,neg,A,,,,,,,,,,,,,,,,,,,,,,,,,,,
,,10,001,2023-05-08_11h52.19.380,Experiment_Tuerk,2022.2.4,MacIntel,62.5,,,,,,,,,,,,,,,,,,,,,,,,,,,,,,,,,,,,,,,,,,,,,,,,,,,,,,,,,,,,,,,,,,,,,,,,,,,,,,,,,,,,,,,,,,,,,,,,,,,,,,,,,,,,,,,,,,c,0,,,2,28,92,28,1,29,Practice,Practice_N,ｵ,ｺ,left,loss,m,Stimuli/Practice/Heater_Outdoor.jpg,29,0,neg,A,0.014,,,,,,,,,,,,,,,,,,,,,,,,,,
,,10,001,2023-05-08_11h52.19.380,Experiment_Tuerk,2022.2.4,MacIntel,62.5,,,,,,,,,,,,,,,,,,,,,,,,,,,,,,,,,,,,,,,,,,,,,,,,,,,,,,,,,,,,,,,,,,,,,,,,,,,,,,,,,,,,,,,,,,,,,,,,,,,,,,,,,,,,,,,,,,m,1,,,2,29,93,29,1,30,Practice,Practice_N,ｺ,ｵ,right,nl,m,Stimuli/Practice/CrepeMaker.jpg,30,1,neg,A,0.167,,,,,,,,,,,,,,,,,,,,,,,,,,
,,10,001,2023-05-08_11h52.19.380,Experiment_Tuerk,2022.2.4,MacIntel,62.5,,,,,,,,,,,,,,,,,,,,,,,,,,,,,,,,,,,,,,,,,,,,,,,,,,,,,,,,,,,,,,,,,,,,,,,,,,,,,,,,,,,,,,,,,,,,,,,,,,,,,,,,,,,,,,,,,,c,1,,,2,30,94,30,1,31,Practice,Practice_N,ｺ,ｵ,left,loss,c,Stimuli/Practice/BicyclePedal.jpg,31,1,neg,A,0.031,,,,,,,,,,,,,,,,,,,,,,,,,,
,,10,001,2023-05-08_11h52.19.380,Experiment_Tuerk,2022.2.4,MacIntel,62.5,,,,,,,,,,,,,,,,,,,,,,,,,,,,,,,,,,,,,,,,,,,,,,,,,,,,,,,,,,,,,,,,,,,,,,,,,,,,,,,,,,,,,,,,,,,,,,,,,,,,,,,,,,,,,,,,,,m,1,space,,2,31,95,31,1,32,Practice,Practice_N,ｺ,ｵ,right,nl,m,Stimuli/Practice/GrillRack.jpg,32,1,neg,A,0.349,10.23,,,,,,,,,,,,,,,,,,,,,,,,,
,,10,001,2023-05-08_11h52.19.380,Experiment_Tuerk,2022.2.4,MacIntel,62.5,,,,,,,,,,,,,,,,,,,,,,,,,,,,,,,,,,,,,,,,,,,,,,,,,,,,,,,,,,,,,,,,,,,,,,,,,,,,,,,,,,,,,,,,,,,,,,,,,,,,,,,,,,,,,,,,,,m,0,,,,,,,,1,1,acquisition_P,ｷ,ｲ,right,r,c,Stimuli/Encoding/House_Rural.jpg,1,0,pos,A,0.811,,space,19.902,,0,0,0,0,1,,,,,,,,,,,,,,,,,
,,10,001,2023-05-08_11h52.19.380,Experiment_Tuerk,2022.2.4,MacIntel,62.5,,,,,,,,,,,,,,,,,,,,,,,,,,,,,,,,,,,,,,,,,,,,,,,,,,,,,,,,,,,,,,,,,,,,,,,,,,,,,,,,,,,,,,,,,,,,,,,,,,,,,,,,,,,,,,,,,,c,1,,,,,,,,2,1,acquisition_P,ｲ,ｷ,left,nr,c,Stimuli/Encoding/Dropper.jpg,2,1,pos,A,0.149,,,,,0,1,1,1,1,,,,,,,,,,,,,,,,,
,,10,001,2023-05-08_11h52.19.380,Experiment_Tuerk,2022.2.4,MacIntel,62.5,,,,,,,,,,,,,,,,,,,,,,,,,,,,,,,,,,,,,,,,,,,,,,,,,,,,,,,,,,,,,,,,,,,,,,,,,,,,,,,,,,,,,,,,,,,,,,,,,,,,,,,,,,,,,,,,,,,0,,,,,,,,3,1,acquisition_P,ｷ,ｲ,left,r,m,Stimuli/Encoding/SpiderWeb.jpg,3,1,pos,A,,,,,,0,2,2,2,1,,,,,,,,,,,,,,,,,
,,10,001,2023-05-08_11h52.19.380,Experiment_Tuerk,2022.2.4,MacIntel,62.5,,,,,,,,,,,,,,,,,,,,,,,,,,,,,,,,,,,,,,,,,,,,,,,,,,,,,,,,,,,,,,,,,,,,,,,,,,,,,,,,,,,,,,,,,,,,,,,,,,,,,,,,,,,,,,,,,,,0,,,,,,,,4,1,acquisition_P,ｲ,ｷ,right,r,m,Stimuli/Encoding/Neckrest.jpg,4,1,pos,A,,,,,,0,3,3,3,1,,,,,,,,,,,,,,,,,
,,10,001,2023-05-08_11h52.19.380,Experiment_Tuerk,2022.2.4,MacIntel,62.5,,,,,,,,,,,,,,,,,,,,,,,,,,,,,,,,,,,,,,,,,,,,,,,,,,,,,,,,,,,,,,,,,,,,,,,,,,,,,,,,,,,,,,,,,,,,,,,,,,,,,,,,,,,,,,,,,,,0,,,,,,,,5,1,acquisition_P,ｲ,ｷ,left,nr,c,Stimuli/Encoding/Archery_ArrowsBows.jpg,5,1,pos,A,,,,,,0,4,4,4,1,,,,,,,,,,,,,,,,,
,,10,001,2023-05-08_11h52.19.380,Experiment_Tuerk,2022.2.4,MacIntel,62.5,,,,,,,,,,,,,,,,,,,,,,,,,,,,,,,,,,,,,,,,,,,,,,,,,,,,,,,,,,,,,,,,,,,,,,,,,,,,,,,,,,,,,,,,,,,,,,,,,,,,,,,,,,,,,,,,,,,0,,,,,,,,6,1,acquisition_P,ｷ,ｲ,left,nr,m,Stimuli/Encoding/Glove_Baseball.jpg,6,0,pos,A,,,,,,0,5,5,5,1,,,,,,,,,,,,,,,,,
,,10,001,2023-05-08_11h52.19.380,Experiment_Tuerk,2022.2.4,MacIntel,62.5,,,,,,,,,,,,,,,,,,,,,,,,,,,,,,,,,,,,,,,,,,,,,,,,,,,,,,,,,,,,,,,,,,,,,,,,,,,,,,,,,,,,,,,,,,,,,,,,,,,,,,,,,,,,,,,,,,,0,,,,,,,,7,1,acquisition_P,ｲ,ｷ,right,r,m,Stimuli/Encoding/Toy_MerryGoRound.jpg,7,1,pos,A,,,,,,0,6,6,6,1,,,,,,,,,,,,,,,,,
,,10,001,2023-05-08_11h52.19.380,Experiment_Tuerk,2022.2.4,MacIntel,62.5,,,,,,,,,,,,,,,,,,,,,,,,,,,,,,,,,,,,,,,,,,,,,,,,,,,,,,,,,,,,,,,,,,,,,,,,,,,,,,,,,,,,,,,,,,,,,,,,,,,,,,,,,,,,,,,,,,,0,,,,,,,,8,1,acquisition_P,ｷ,ｲ,left,r,m,Stimuli/Encoding/Trowel.jpg,8,1,pos,A,,,,,,0,7,7,7,1,,,,,,,,,,,,,,,,,
,,10,001,2023-05-08_11h52.19.380,Experiment_Tuerk,2022.2.4,MacIntel,62.5,,,,,,,,,,,,,,,,,,,,,,,,,,,,,,,,,,,,,,,,,,,,,,,,,,,,,,,,,,,,,,,,,,,,,,,,,,,,,,,,,,,,,,,,,,,,,,,,,,,,,,,,,,,,,,,,,,,0,,,,,,,,9,1,acquisition_P,ｷ,ｲ,right,nr,c,Stimuli/Encoding/ChariotGold.jpg,9,1,pos,A,,,,,,0,8,8,8,1,,,,,,,,,,,,,,,,,
,,10,001,2023-05-08_11h52.19.380,Experiment_Tuerk,2022.2.4,MacIntel,62.5,,,,,,,,,,,,,,,,,,,,,,,,,,,,,,,,,,,,,,,,,,,,,,,,,,,,,,,,,,,,,,,,,,,,,,,,,,,,,,,,,,,,,,,,,,,,,,,,,,,,,,,,,,,,,,,,,,,0,,,,,,,,10,1,acquisition_P,ｲ,ｷ,left,nr,c,Stimuli/Encoding/StreetSweeper.jpg,10,1,pos,A,,,,,,0,9,9,9,1,,,,,,,,,,,,,,,,,
,,10,001,2023-05-08_11h52.19.380,Experiment_Tuerk,2022.2.4,MacIntel,62.5,,,,,,,,,,,,,,,,,,,,,,,,,,,,,,,,,,,,,,,,,,,,,,,,,,,,,,,,,,,,,,,,,,,,,,,,,,,,,,,,,,,,,,,,,,,,,,,,,,,,,,,,,,,,,,,,,,,0,,,,,,,,11,1,acquisition_P,ｷ,ｲ,left,r,m,Stimuli/Encoding/Stool_Metal.jpg,11,1,pos,A,,,,,,0,10,10,10,1,,,,,,,,,,,,,,,,,
,,10,001,2023-05-08_11h52.19.380,Experiment_Tuerk,2022.2.4,MacIntel,62.5,,,,,,,,,,,,,,,,,,,,,,,,,,,,,,,,,,,,,,,,,,,,,,,,,,,,,,,,,,,,,,,,,,,,,,,,,,,,,,,,,,,,,,,,,,,,,,,,,,,,,,,,,,,,,,,,,,,0,,,,,,,,12,1,acquisition_P,ｷ,ｲ,right,nr,c,Stimuli/Encoding/Fridge.jpg,12,1,pos,A,,,,,,0,11,11,11,1,,,,,,,,,,,,,,,,,
,,10,001,2023-05-08_11h52.19.380,Experiment_Tuerk,2022.2.4,MacIntel,62.5,,,,,,,,,,,,,,,,,,,,,,,,,,,,,,,,,,,,,,,,,,,,,,,,,,,,,,,,,,,,,,,,,,,,,,,,,,,,,,,,,,,,,,,,,,,,,,,,,,,,,,,,,,,,,,,,,,,0,,,,,,,,13,1,acquisition_P,ｷ,ｲ,left,r,m,Stimuli/Encoding/Bird_Falcon.jpg,13,1,pos,A,,,,,,0,12,12,12,1,,,,,,,,,,,,,,,,,
,,10,001,2023-05-08_11h52.19.380,Experiment_Tuerk,2022.2.4,MacIntel,62.5,,,,,,,,,,,,,,,,,,,,,,,,,,,,,,,,,,,,,,,,,,,,,,,,,,,,,,,,,,,,,,,,,,,,,,,,,,,,,,,,,,,,,,,,,,,,,,,,,,,,,,,,,,,,,,,,,,,0,,,,,,,,14,1,acquisition_P,ｷ,ｲ,right,nr,c,Stimuli/Encoding/Toy_SeeSaw.jpg,14,1,pos,A,,,,,,0,13,13,13,1,,,,,,,,,,,,,,,,,
,,10,001,2023-05-08_11h52.19.380,Experiment_Tuerk,2022.2.4,MacIntel,62.5,,,,,,,,,,,,,,,,,,,,,,,,,,,,,,,,,,,,,,,,,,,,,,,,,,,,,,,,,,,,,,,,,,,,,,,,,,,,,,,,,,,,,,,,,,,,,,,,,,,,,,,,,,,,,,,,,,,0,,,,,,,,15,1,acquisition_P,ｲ,ｷ,right,r,m,Stimuli/Encoding/LampPost_ThreeBulbs.jpg,15,1,pos,A,,,,,,0,14,14,14,1,,,,,,,,,,,,,,,,,
,,10,001,2023-05-08_11h52.19.380,Experiment_Tuerk,2022.2.4,MacIntel,62.5,,,,,,,,,,,,,,,,,,,,,,,,,,,,,,,,,,,,,,,,,,,,,,,,,,,,,,,,,,,,,,,,,,,,,,,,,,,,,,,,,,,,,,,,,,,,,,,,,,,,,,,,,,,,,,,,,,,0,,,,,,,,16,1,acquisition_P,ｲ,ｷ,left,nr,c,Stimuli/Encoding/Snorkle.jpg,16,1,pos,A,,,,,,0,15,15,15,1,,,,,,,,,,,,,,,,,
,,10,001,2023-05-08_11h52.19.380,Experiment_Tuerk,2022.2.4,MacIntel,62.5,,,,,,,,,,,,,,,,,,,,,,,,,,,,,,,,,,,,,,,,,,,,,,,,,,,,,,,,,,,,,,,,,,,,,,,,,,,,,,,,,,,,,,,,,,,,,,,,,,,,,,,,,,,,,,,,,,,0,,,,,,,,17,1,acquisition_P,ｲ,ｷ,left,nr,c,Stimuli/Encoding/Jetski.jpg,17,1,pos,A,,,,,,0,16,16,16,1,,,,,,,,,,,,,,,,,
,,10,001,2023-05-08_11h52.19.380,Experiment_Tuerk,2022.2.4,MacIntel,62.5,,,,,,,,,,,,,,,,,,,,,,,,,,,,,,,,,,,,,,,,,,,,,,,,,,,,,,,,,,,,,,,,,,,,,,,,,,,,,,,,,,,,,,,,,,,,,,,,,,,,,,,,,,,,,,,,,,,0,,,,,,,,18,1,acquisition_P,ｲ,ｷ,left,nr,c,Stimuli/Encoding/Dog_SaintBernard.jpg,18,1,pos,A,,,,,,0,17,17,17,1,,,,,,,,,,,,,,,,,
,,10,001,2023-05-08_11h52.19.380,Experiment_Tuerk,2022.2.4,MacIntel,62.5,,,,,,,,,,,,,,,,,,,,,,,,,,,,,,,,,,,,,,,,,,,,,,,,,,,,,,,,,,,,,,,,,,,,,,,,,,,,,,,,,,,,,,,,,,,,,,,,,,,,,,,,,,,,,,,,,,,0,,,,,,,,19,1,acquisition_P,ｷ,ｲ,right,nr,c,Stimuli/Encoding/Fryingpan.jpg,19,1,pos,A,,,,,,0,18,18,18,1,,,,,,,,,,,,,,,,,
,,10,001,2023-05-08_11h52.19.380,Experiment_Tuerk,2022.2.4,MacIntel,62.5,,,,,,,,,,,,,,,,,,,,,,,,,,,,,,,,,,,,,,,,,,,,,,,,,,,,,,,,,,,,,,,,,,,,,,,,,,,,,,,,,,,,,,,,,,,,,,,,,,,,,,,,,,,,,,,,,,,0,,,,,,,,20,1,acquisition_P,ｲ,ｷ,right,r,m,Stimuli/Encoding/Cabinet_Display.jpg,20,1,pos,A,,,,,,0,19,19,19,1,,,,,,,,,,,,,,,,,
,,10,001,2023-05-08_11h52.19.380,Experiment_Tuerk,2022.2.4,MacIntel,62.5,,,,,,,,,,,,,,,,,,,,,,,,,,,,,,,,,,,,,,,,,,,,,,,,,,,,,,,,,,,,,,,,,,,,,,,,,,,,,,,,,,,,,,,,,,,,,,,,,,,,,,,,,,,,,,,,,,,0,,,,,,,,21,1,acquisition_P,ｲ,ｷ,right,r,m,Stimuli/Encoding/WaterColorPaintset.jpg,21,1,pos,A,,,,,,0,20,20,20,1,,,,,,,,,,,,,,,,,
,,10,001,2023-05-08_11h52.19.380,Experiment_Tuerk,2022.2.4,MacIntel,62.5,,,,,,,,,,,,,,,,,,,,,,,,,,,,,,,,,,,,,,,,,,,,,,,,,,,,,,,,,,,,,,,,,,,,,,,,,,,,,,,,,,,,,,,,,,,,,,,,,,,,,,,,,,,,,,,,,,,0,,,,,,,,22,1,acquisition_P,ｷ,ｲ,left,nr,m,Stimuli/Encoding/Broom_Short.jpg,22,0,pos,A,,,,,,0,21,21,21,1,,,,,,,,,,,,,,,,,
,,10,001,2023-05-08_11h52.19.380,Experiment_Tuerk,2022.2.4,MacIntel,62.5,,,,,,,,,,,,,,,,,,,,,,,,,,,,,,,,,,,,,,,,,,,,,,,,,,,,,,,,,,,,,,,,,,,,,,,,,,,,,,,,,,,,,,,,,,,,,,,,,,,,,,,,,,,,,,,,,,c,1,,,,,,,,23,1,acquisition_P,ｲ,ｷ,left,r,c,Stimuli/Encoding/CigarCase.jpg,23,0,pos,A,0.157,,,,,0,22,22,22,1,,,,,,,,,,,,,,,,,
,,10,001,2023-05-08_11h52.19.380,Experiment_Tuerk,2022.2.4,MacIntel,62.5,,,,,,,,,,,,,,,,,,,,,,,,,,,,,,,,,,,,,,,,,,,,,,,,,,,,,,,,,,,,,,,,,,,,,,,,,,,,,,,,,,,,,,,,,,,,,,,,,,,,,,,,,,,,,,,,,,,0,,,,,,,,24,1,acquisition_P,ｲ,ｷ,right,nr,m,Stimuli/Encoding/Chair_Office.jpg,24,0,pos,A,,,,,,0,23,23,23,1,,,,,,,,,,,,,,,,,
,,10,001,2023-05-08_11h52.19.380,Experiment_Tuerk,2022.2.4,MacIntel,62.5,,,,,,,,,,,,,,,,,,,,,,,,,,,,,,,,,,,,,,,,,,,,,,,,,,,,,,,,,,,,,,,,,,,,,,,,,,,,,,,,,,,,,,,,,,,,,,,,,,,,,,,,,,,,,,,,,,,0,,,,,,,,25,1,acquisition_P,ｷ,ｲ,left,r,m,Stimuli/Encoding/Arch_Triomphe.jpg,25,1,pos,A,,,,,,0,24,24,24,1,,,,,,,,,,,,,,,,,
,,10,001,2023-05-08_11h52.19.380,Experiment_Tuerk,2022.2.4,MacIntel,62.5,,,,,,,,,,,,,,,,,,,,,,,,,,,,,,,,,,,,,,,,,,,,,,,,,,,,,,,,,,,,,,,,,,,,,,,,,,,,,,,,,,,,,,,,,,,,,,,,,,,,,,,,,,,,,,,,,,c,0,,,,,,,,26,1,acquisition_P,ｲ,ｷ,right,r,m,Stimuli/Encoding/Pickaxe.jpg,26,1,pos,A,0.155,,,,,0,25,25,25,1,,,,,,,,,,,,,,,,,
,,10,001,2023-05-08_11h52.19.380,Experiment_Tuerk,2022.2.4,MacIntel,62.5,,,,,,,,,,,,,,,,,,,,,,,,,,,,,,,,,,,,,,,,,,,,,,,,,,,,,,,,,,,,,,,,,,,,,,,,,,,,,,,,,,,,,,,,,,,,,,,,,,,,,,,,,,,,,,,,,,m,0,,,,,,,,27,1,acquisition_P,ｷ,ｲ,right,nr,c,Stimuli/Encoding/Mask_Gas.jpg,27,1,pos,A,0.1,,,,,0,26,26,26,1,,,,,,,,,,,,,,,,,
,,10,001,2023-05-08_11h52.19.380,Experiment_Tuerk,2022.2.4,MacIntel,62.5,,,,,,,,,,,,,,,,,,,,,,,,,,,,,,,,,,,,,,,,,,,,,,,,,,,,,,,,,,,,,,,,,,,,,,,,,,,,,,,,,,,,,,,,,,,,,,,,,,,,,,,,,,,,,,,,,,m,1,,,,,,,,28,1,acquisition_P,ｲ,ｷ,right,nr,m,Stimuli/Encoding/Shoes_DutchClogs.jpg,28,0,pos,A,0.008,,,,,0,27,27,27,1,,,,,,,,,,,,,,,,,
,,10,001,2023-05-08_11h52.19.380,Experiment_Tuerk,2022.2.4,MacIntel,62.5,,,,,,,,,,,,,,,,,,,,,,,,,,,,,,,,,,,,,,,,,,,,,,,,,,,,,,,,,,,,,,,,,,,,,,,,,,,,,,,,,,,,,,,,,,,,,,,,,,,,,,,,,,,,,,,,,,c,1,,,,,,,,29,1,acquisition_P,ｷ,ｲ,right,r,c,Stimuli/Encoding/Card_TwoSpade.jpg,29,0,pos,A,0.038,,,,,0,28,28,28,1,,,,,,,,,,,,,,,,,
,,10,001,2023-05-08_11h52.19.380,Experiment_Tuerk,2022.2.4,MacIntel,62.5,,,,,,,,,,,,,,,,,,,,,,,,,,,,,,,,,,,,,,,,,,,,,,,,,,,,,,,,,,,,,,,,,,,,,,,,,,,,,,,,,,,,,,,,,,,,,,,,,,,,,,,,,,,,,,,,,,m,0,,,,,,,,30,1,acquisition_P,ｲ,ｷ,left,r,c,Stimuli/Encoding/Bus_School.jpg,30,0,pos,A,0.071,,,,,0,29,29,29,1,,,,,,,,,,,,,,,,,
,,10,001,2023-05-08_11h52.19.380,Experiment_Tuerk,2022.2.4,MacIntel,62.5,,,,,,,,,,,,,,,,,,,,,,,,,,,,,,,,,,,,,,,,,,,,,,,,,,,,,,,,,,,,,,,,,,,,,,,,,,,,,,,,,,,,,,,,,,,,,,,,,,,,,,,,,,,,,,,,,,c,0,,,,,,,,31,1,acquisition_P,ｷ,ｲ,left,r,m,Stimuli/Encoding/Handbag.jpg,31,1,pos,A,0.005,,,,,0,30,30,30,1,,,,,,,,,,,,,,,,,
,,10,001,2023-05-08_11h52.19.380,Experiment_Tuerk,2022.2.4,MacIntel,62.5,,,,,,,,,,,,,,,,,,,,,,,,,,,,,,,,,,,,,,,,,,,,,,,,,,,,,,,,,,,,,,,,,,,,,,,,,,,,,,,,,,,,,,,,,,,,,,,,,,,,,,,,,,,,,,,,,,m,0,,,,,,,,32,1,acquisition_P,ｷ,ｲ,right,nr,c,Stimuli/Encoding/LampPost_WhiteOrnate.jpg,32,1,pos,A,0.099,,,,,0,31,31,31,1,,,,,,,,,,,,,,,,,
,,10,001,2023-05-08_11h52.19.380,Experiment_Tuerk,2022.2.4,MacIntel,62.5,,,,,,,,,,,,,,,,,,,,,,,,,,,,,,,,,,,,,,,,,,,,,,,,,,,,,,,,,,,,,,,,,,,,,,,,,,,,,,,,,,,,,,,,,,,,,,,,,,,,,,,,,,,,,,,,,,m,1,,,,,,,,33,2,reversal_P_N,ｲ,ｷ,left,loss,m,Stimuli/Encoding/Blueprints.jpg,1,0,neg,A,0.134,,,,,0,32,32,32,1,,,,,,,,,,,,,,,,,
,,10,001,2023-05-08_11h52.19.380,Experiment_Tuerk,2022.2.4,MacIntel,62.5,,,,,,,,,,,,,,,,,,,,,,,,,,,,,,,,,,,,,,,,,,,,,,,,,,,,,,,,,,,,,,,,,,,,,,,,,,,,,,,,,,,,,,,,,,,,,,,,,,,,,,,,,,,,,,,,,,m,1,,,,,,,,34,2,reversal_P_N,ｲ,ｷ,left,loss,m,Stimuli/Encoding/PencilCase.jpg,2,0,neg,A,0.155,,,,,0,33,33,33,1,,,,,,,,,,,,,,,,,
,,10,001,2023-05-08_11h52.19.380,Experiment_Tuerk,2022.2.4,MacIntel,62.5,,,,,,,,,,,,,,,,,,,,,,,,,,,,,,,,,,,,,,,,,,,,,,,,,,,,,,,,,,,,,,,,,,,,,,,,,,,,,,,,,,,,,,,,,,,,,,,,,,,,,,,,,,,,,,,,,,c,1,,,,,,,,35,2,reversal_P_N,ｷ,ｲ,right,loss,c,Stimuli/Encoding/Telephone_Dial.jpg,3,1,neg,A,0.117,,,,,0,34,34,34,1,,,,,,,,,,,,,,,,,
,,10,001,2023-05-08_11h52.19.380,Experiment_Tuerk,2022.2.4,MacIntel,62.5,,,,,,,,,,,,,,,,,,,,,,,,,,,,,,,,,,,,,,,,,,,,,,,,,,,,,,,,,,,,,,,,,,,,,,,,,,,,,,,,,,,,,,,,,,,,,,,,,,,,,,,,,,,,,,,,,,m,1,,,,,,,,36,2,reversal_P_N,ｷ,ｲ,left,nl,m,Stimuli/Encoding/Flute_Wooden.jpg,4,1,neg,A,0.031,,,,,0,35,35,35,1,,,,,,,,,,,,,,,,,
,,10,001,2023-05-08_11h52.19.380,Experiment_Tuerk,2022.2.4,MacIntel,62.5,,,,,,,,,,,,,,,,,,,,,,,,,,,,,,,,,,,,,,,,,,,,,,,,,,,,,,,,,,,,,,,,,,,,,,,,,,,,,,,,,,,,,,,,,,,,,,,,,,,,,,,,,,,,,,,,,,m,0,,,,,,,,37,2,reversal_P_N,ｲ,ｷ,right,loss,c,Stimuli/Encoding/KeyHook_Occupied.jpg,5,1,neg,A,0.032,,,,,0,36,36,36,1,,,,,,,,,,,,,,,,,
,,10,001,2023-05-08_11h52.19.380,Experiment_Tuerk,2022.2.4,MacIntel,62.5,,,,,,,,,,,,,,,,,,,,,,,,,,,,,,,,,,,,,,,,,,,,,,,,,,,,,,,,,,,,,,,,,,,,,,,,,,,,,,,,,,,,,,,,,,,,,,,,,,,,,,,,,,,,,,,,,,c,0,,,,,,,,38,2,reversal_P_N,ｲ,ｷ,left,nl,m,Stimuli/Encoding/Inukshuk.jpg,6,1,neg,A,0.099,,,,,0,37,37,37,1,,,,,,,,,,,,,,,,,
,,10,001,2023-05-08_11h52.19.380,Experiment_Tuerk,2022.2.4,MacIntel,62.5,,,,,,,,,,,,,,,,,,,,,,,,,,,,,,,,,,,,,,,,,,,,,,,,,,,,,,,,,,,,,,,,,,,,,,,,,,,,,,,,,,,,,,,,,,,,,,,,,,,,,,,,,,,,,,,,,,m,0,,,,,,,,39,2,reversal_P_N,ｲ,ｷ,right,loss,c,Stimuli/Encoding/SiloGrain.jpg,7,1,neg,A,0.067,,,,,0,38,38,38,1,,,,,,,,,,,,,,,,,
,,10,001,2023-05-08_11h52.19.380,Experiment_Tuerk,2022.2.4,MacIntel,62.5,,,,,,,,,,,,,,,,,,,,,,,,,,,,,,,,,,,,,,,,,,,,,,,,,,,,,,,,,,,,,,,,,,,,,,,,,,,,,,,,,,,,,,,,,,,,,,,,,,,,,,,,,,,,,,,,,,c,1,,,,,,,,40,2,reversal_P_N,ｷ,ｲ,left,loss,c,Stimuli/Encoding/FuzzyDice.jpg,8,0,neg,A,0.072,,,,,0,39,39,39,1,,,,,,,,,,,,,,,,,
,,10,001,2023-05-08_11h52.19.380,Experiment_Tuerk,2022.2.4,MacIntel,62.5,,,,,,,,,,,,,,,,,,,,,,,,,,,,,,,,,,,,,,,,,,,,,,,,,,,,,,,,,,,,,,,,,,,,,,,,,,,,,,,,,,,,,,,,,,,,,,,,,,,,,,,,,,,,,,,,,,m,0,,,,,,,,41,2,reversal_P_N,ｲ,ｷ,right,nl,c,Stimuli/Encoding/JuicerCitrus.jpg,9,0,neg,A,0.155,,,,,0,40,40,40,1,,,,,,,,,,,,,,,,,
,,10,001,2023-05-08_11h52.19.380,Experiment_Tuerk,2022.2.4,MacIntel,62.5,,,,,,,,,,,,,,,,,,,,,,,,,,,,,,,,,,,,,,,,,,,,,,,,,,,,,,,,,,,,,,,,,,,,,,,,,,,,,,,,,,,,,,,,,,,,,,,,,,,,,,,,,,,,,,,,,,c,1,,,,,,,,42,2,reversal_P_N,ｷ,ｲ,right,loss,c,Stimuli/Encoding/Flamingo_Real.jpg,10,1,neg,A,0.019,,,,,0,41,41,41,1,,,,,,,,,,,,,,,,,
,,10,001,2023-05-08_11h52.19.380,Experiment_Tuerk,2022.2.4,MacIntel,62.5,,,,,,,,,,,,,,,,,,,,,,,,,,,,,,,,,,,,,,,,,,,,,,,,,,,,,,,,,,,,,,,,,,,,,,,,,,,,,,,,,,,,,,,,,,,,,,,,,,,,,,,,,,,,,,,,,,m,1,,,,,,,,43,2,reversal_P_N,ｷ,ｲ,left,nl,m,Stimuli/Encoding/Horn_French.jpg,11,1,neg,A,0.067,,,,,0,42,42,42,1,,,,,,,,,,,,,,,,,
,,10,001,2023-05-08_11h52.19.380,Experiment_Tuerk,2022.2.4,MacIntel,62.5,,,,,,,,,,,,,,,,,,,,,,,,,,,,,,,,,,,,,,,,,,,,,,,,,,,,,,,,,,,,,,,,,,,,,,,,,,,,,,,,,,,,,,,,,,,,,,,,,,,,,,,,,,,,,,,,,,m,1,,,,,,,,44,2,reversal_P_N,ｲ,ｷ,left,nl,m,Stimuli/Encoding/Pacifier.jpg,12,1,neg,A,0,,,,,0,43,43,43,1,,,,,,,,,,,,,,,,,
,,10,001,2023-05-08_11h52.19.380,Experiment_Tuerk,2022.2.4,MacIntel,62.5,,,,,,,,,,,,,,,,,,,,,,,,,,,,,,,,,,,,,,,,,,,,,,,,,,,,,,,,,,,,,,,,,,,,,,,,,,,,,,,,,,,,,,,,,,,,,,,,,,,,,,,,,,,,,,,,,,c,1,,,,,,,,45,2,reversal_P_N,ｲ,ｷ,right,loss,c,Stimuli/Encoding/Lens_Camera.jpg,13,1,neg,A,0.083,,,,,0,44,44,44,1,,,,,,,,,,,,,,,,,
,,10,001,2023-05-08_11h52.19.380,Experiment_Tuerk,2022.2.4,MacIntel,62.5,,,,,,,,,,,,,,,,,,,,,,,,,,,,,,,,,,,,,,,,,,,,,,,,,,,,,,,,,,,,,,,,,,,,,,,,,,,,,,,,,,,,,,,,,,,,,,,,,,,,,,,,,,,,,,,,,,m,1,,,,,,,,46,2,reversal_P_N,ｷ,ｲ,left,nl,m,Stimuli/Encoding/Hippopotamus.jpg,14,1,neg,A,0.033,,,,,0,45,45,45,1,,,,,,,,,,,,,,,,,
,,10,001,2023-05-08_11h52.19.380,Experiment_Tuerk,2022.2.4,MacIntel,62.5,,,,,,,,,,,,,,,,,,,,,,,,,,,,,,,,,,,,,,,,,,,,,,,,,,,,,,,,,,,,,,,,,,,,,,,,,,,,,,,,,,,,,,,,,,,,,,,,,,,,,,,,,,,,,,,,,,,0,,,,,,,,47,2,reversal_P_N,ｲ,ｷ,right,loss,c,Stimuli/Encoding/Hockey_Puck.jpg,15,1,neg,A,,,,,,0,46,46,46,1,,,,,,,,,,,,,,,,,
,,10,001,2023-05-08_11h52.19.380,Experiment_Tuerk,2022.2.4,MacIntel,62.5,,,,,,,,,,,,,,,,,,,,,,,,,,,,,,,,,,,,,,,,,,,,,,,,,,,,,,,,,,,,,,,,,,,,,,,,,,,,,,,,,,,,,,,,,,,,,,,,,,,,,,,,,,,,,,,,,,m,0,,,,,,,,48,2,reversal_P_N,ｷ,ｲ,right,loss,c,Stimuli/Encoding/Playground.jpg,16,1,neg,A,0.158,,,,,0,47,47,47,1,,,,,,,,,,,,,,,,,
,,10,001,2023-05-08_11h52.19.380,Experiment_Tuerk,2022.2.4,MacIntel,62.5,,,,,,,,,,,,,,,,,,,,,,,,,,,,,,,,,,,,,,,,,,,,,,,,,,,,,,,,,,,,,,,,,,,,,,,,,,,,,,,,,,,,,,,,,,,,,,,,,,,,,,,,,,,,,,,,,,,0,,,,,,,,49,2,reversal_P_N,ｷ,ｲ,right,nl,m,Stimuli/Encoding/Glass_Beer.jpg,17,0,neg,A,,,,,,0,48,48,48,1,,,,,,,,,,,,,,,,,
,,10,001,2023-05-08_11h52.19.380,Experiment_Tuerk,2022.2.4,MacIntel,62.5,,,,,,,,,,,,,,,,,,,,,,,,,,,,,,,,,,,,,,,,,,,,,,,,,,,,,,,,,,,,,,,,,,,,,,,,,,,,,,,,,,,,,,,,,,,,,,,,,,,,,,,,,,,,,,,,,,,0,,,,,,,,50,2,reversal_P_N,ｲ,ｷ,left,nl,m,Stimuli/Encoding/CoffeePot.jpg,18,1,neg,A,,,,,,0,49,49,49,1,,,,,,,,,,,,,,,,,
,,10,001,2023-05-08_11h52.19.380,Experiment_Tuerk,2022.2.4,MacIntel,62.5,,,,,,,,,,,,,,,,,,,,,,,,,,,,,,,,,,,,,,,,,,,,,,,,,,,,,,,,,,,,,,,,,,,,,,,,,,,,,,,,,,,,,,,,,,,,,,,,,,,,,,,,,,,,,,,,,,,0,,,,,,,,51,2,reversal_P_N,ｲ,ｷ,left,nl,m,Stimuli/Encoding/Bird_Pelican.jpg,19,1,neg,A,,,,,,0,50,50,50,1,,,,,,,,,,,,,,,,,
,,10,001,2023-05-08_11h52.19.380,Experiment_Tuerk,2022.2.4,MacIntel,62.5,,,,,,,,,,,,,,,,,,,,,,,,,,,,,,,,,,,,,,,,,,,,,,,,,,,,,,,,,,,,,,,,,,,,,,,,,,,,,,,,,,,,,,,,,,,,,,,,,,,,,,,,,,,,,,,,,,,0,,,,,,,,52,2,reversal_P_N,ｷ,ｲ,left,nl,m,Stimuli/Encoding/Arch.jpg,20,1,neg,A,,,,,,0,51,51,51,1,,,,,,,,,,,,,,,,,
,,10,001,2023-05-08_11h52.19.380,Experiment_Tuerk,2022.2.4,MacIntel,62.5,,,,,,,,,,,,,,,,,,,,,,,,,,,,,,,,,,,,,,,,,,,,,,,,,,,,,,,,,,,,,,,,,,,,,,,,,,,,,,,,,,,,,,,,,,,,,,,,,,,,,,,,,,,,,,,,,,,0,,,,,,,,53,2,reversal_P_N,ｲ,ｷ,left,nl,m,Stimuli/Encoding/Bowl_Sugar.jpg,21,1,neg,A,,,,,,0,52,52,52,1,,,,,,,,,,,,,,,,,
,,10,001,2023-05-08_11h52.19.380,Experiment_Tuerk,2022.2.4,MacIntel,62.5,,,,,,,,,,,,,,,,,,,,,,,,,,,,,,,,,,,,,,,,,,,,,,,,,,,,,,,,,,,,,,,,,,,,,,,,,,,,,,,,,,,,,,,,,,,,,,,,,,,,,,,,,,,,,,,,,,,0,,,,,,,,54,2,reversal_P_N,ｷ,ｲ,right,loss,c,Stimuli/Encoding/Toy_ElephantPlastic.jpg,22,1,neg,A,,,,,,0,53,53,53,1,,,,,,,,,,,,,,,,,
,,10,001,2023-05-08_11h52.19.380,Experiment_Tuerk,2022.2.4,MacIntel,62.5,,,,,,,,,,,,,,,,,,,,,,,,,,,,,,,,,,,,,,,,,,,,,,,,,,,,,,,,,,,,,,,,,,,,,,,,,,,,,,,,,,,,,,,,,,,,,,,,,,,,,,,,,,,,,,,,,,,0,,,,,,,,55,2,reversal_P_N,ｷ,ｲ,right,loss,c,Stimuli/Encoding/Bread_Melon.jpg,23,1,neg,A,,,,,,0,54,54,54,1,,,,,,,,,,,,,,,,,
,,10,001,2023-05-08_11h52.19.380,Experiment_Tuerk,2022.2.4,MacIntel,62.5,,,,,,,,,,,,,,,,,,,,,,,,,,,,,,,,,,,,,,,,,,,,,,,,,,,,,,,,,,,,,,,,,,,,,,,,,,,,,,,,,,,,,,,,,,,,,,,,,,,,,,,,,,,,,,,,,,m,0,,,,,,,,56,2,reversal_P_N,ｲ,ｷ,right,loss,c,Stimuli/Encoding/Cassette_Audio.jpg,24,1,neg,A,0.183,,,,,0,55,55,55,1,,,,,,,,,,,,,,,,,
,,10,001,2023-05-08_11h52.19.380,Experiment_Tuerk,2022.2.4,MacIntel,62.5,,,,,,,,,,,,,,,,,,,,,,,,,,,,,,,,,,,,,,,,,,,,,,,,,,,,,,,,,,,,,,,,,,,,,,,,,,,,,,,,,,,,,,,,,,,,,,,,,,,,,,,,,,,,,,,,,,,0,,,,,,,,57,2,reversal_P_N,ｲ,ｷ,left,nl,m,Stimuli/Encoding/Plunger.jpg,25,1,neg,A,,,,,,0,56,56,56,1,,,,,,,,,,,,,,,,,
,,10,001,2023-05-08_11h52.19.380,Experiment_Tuerk,2022.2.4,MacIntel,62.5,,,,,,,,,,,,,,,,,,,,,,,,,,,,,,,,,,,,,,,,,,,,,,,,,,,,,,,,,,,,,,,,,,,,,,,,,,,,,,,,,,,,,,,,,,,,,,,,,,,,,,,,,,,,,,,,,,m,1,,,,,,,,58,2,reversal_P_N,ｷ,ｲ,left,nl,m,Stimuli/Encoding/Hat_Party.jpg,26,1,neg,A,0.75,,,,,0,57,57,57,1,,,,,,,,,,,,,,,,,
,,10,001,2023-05-08_11h52.19.380,Experiment_Tuerk,2022.2.4,MacIntel,62.5,,,,,,,,,,,,,,,,,,,,,,,,,,,,,,,,,,,,,,,,,,,,,,,,,,,,,,,,,,,,,,,,,,,,,,,,,,,,,,,,,,,,,,,,,,,,,,,,,,,,,,,,,,,,,,,,,,,0,,,,,,,,59,2,reversal_P_N,ｷ,ｲ,right,loss,c,Stimuli/Encoding/Statue_Jesus.jpg,27,1,neg,A,,,,,,0,58,58,58,1,,,,,,,,,,,,,,,,,
,,10,001,2023-05-08_11h52.19.380,Experiment_Tuerk,2022.2.4,MacIntel,62.5,,,,,,,,,,,,,,,,,,,,,,,,,,,,,,,,,,,,,,,,,,,,,,,,,,,,,,,,,,,,,,,,,,,,,,,,,,,,,,,,,,,,,,,,,,,,,,,,,,,,,,,,,,,,,,,,,,,0,,,,,,,,60,2,reversal_P_N,ｲ,ｷ,right,nl,c,Stimuli/Encoding/Socks_Baby.jpg,28,0,neg,A,,,,,,0,59,59,59,1,,,,,,,,,,,,,,,,,
,,10,001,2023-05-08_11h52.19.380,Experiment_Tuerk,2022.2.4,MacIntel,62.5,,,,,,,,,,,,,,,,,,,,,,,,,,,,,,,,,,,,,,,,,,,,,,,,,,,,,,,,,,,,,,,,,,,,,,,,,,,,,,,,,,,,,,,,,,,,,,,,,,,,,,,,,,,,,,,,,,,0,,,,,,,,61,2,reversal_P_N,ｷ,ｲ,left,loss,c,Stimuli/Encoding/Tray_Metal.jpg,29,0,neg,A,,,,,,0,60,60,60,1,,,,,,,,,,,,,,,,,
,,10,001,2023-05-08_11h52.19.380,Experiment_Tuerk,2022.2.4,MacIntel,62.5,,,,,,,,,,,,,,,,,,,,,,,,,,,,,,,,,,,,,,,,,,,,,,,,,,,,,,,,,,,,,,,,,,,,,,,,,,,,,,,,,,,,,,,,,,,,,,,,,,,,,,,,,,,,,,,,,,,0,,,,,,,,62,2,reversal_P_N,ｲ,ｷ,right,loss,c,Stimuli/Encoding/Bird_Duck.jpg,30,1,neg,A,,,,,,0,61,61,61,1,,,,,,,,,,,,,,,,,
,,10,001,2023-05-08_11h52.19.380,Experiment_Tuerk,2022.2.4,MacIntel,62.5,,,,,,,,,,,,,,,,,,,,,,,,,,,,,,,,,,,,,,,,,,,,,,,,,,,,,,,,,,,,,,,,,,,,,,,,,,,,,,,,,,,,,,,,,,,,,,,,,,,,,,,,,,,,,,,,,,m,1,,,,,,,,63,2,reversal_P_N,ｷ,ｲ,right,nl,m,Stimuli/Encoding/PlayerFootball.jpg,31,0,neg,A,0.001,,,,,0,62,62,62,1,,,,,,,,,,,,,,,,,
,,10,001,2023-05-08_11h52.19.380,Experiment_Tuerk,2022.2.4,MacIntel,62.5,,,,,,,,,,,,,,,,,,,,,,,,,,,,,,,,,,,,,,,,,,,,,,,,,,,,,,,,,,,,,,,,,,,,,,,,,,,,,,,,,,,,,,,,,,,,,,,,,,,,,,,,,,,,,,,,,,,0,,,,,,,,64,2,reversal_P_N,ｷ,ｲ,left,nl,m,Stimuli/Encoding/Toy_LambPlushie.jpg,32,1,neg,A,,,,,space,0,63,63,63,1,237.154,,,,,,,,,,,,,,,,
,,10,001,2023-05-08_11h52.19.380,Experiment_Tuerk,2022.2.4,MacIntel,62.5,,,,,,,,,,,,,,,,,,,,,,,,,,,,,,,,,,,,,,,,,,,,,,,,,,,,,,,,,,,,,,,,,,,,,,,,,,,,,,,,,,,,,,,,,,,,,,,,,,,,,,,,,,,,,,,,,,m,0,,,,,,,,65,3,acquisition_N,ｼ,ﾌ,left,nl,c,Stimuli/Encoding/Headset.jpg,1,0,neg,A,0.049,,,,,0,64,64,64,1,,,,,,,,,,,,,,,,,
,,10,001,2023-05-08_11h52.19.380,Experiment_Tuerk,2022.2.4,MacIntel,62.5,,,,,,,,,,,,,,,,,,,,,,,,,,,,,,,,,,,,,,,,,,,,,,,,,,,,,,,,,,,,,,,,,,,,,,,,,,,,,,,,,,,,,,,,,,,,,,,,,,,,,,,,,,,,,,,,,,,0,,,,,,,,66,3,acquisition_N,ｼ,ﾌ,left,nl,c,Stimuli/Encoding/Jet.jpg,2,0,neg,A,,,,,,0,65,65,65,1,,,,,,,,,,,,,,,,,
,,10,001,2023-05-08_11h52.19.380,Experiment_Tuerk,2022.2.4,MacIntel,62.5,,,,,,,,,,,,,,,,,,,,,,,,,,,,,,,,,,,,,,,,,,,,,,,,,,,,,,,,,,,,,,,,,,,,,,,,,,,,,,,,,,,,,,,,,,,,,,,,,,,,,,,,,,,,,,,,,,,0,,,,,,,,67,3,acquisition_N,ﾌ,ｼ,right,loss,c,Stimuli/Encoding/Truck_Box.jpg,3,1,neg,A,,,,,,0,66,66,66,1,,,,,,,,,,,,,,,,,
,,10,001,2023-05-08_11h52.19.380,Experiment_Tuerk,2022.2.4,MacIntel,62.5,,,,,,,,,,,,,,,,,,,,,,,,,,,,,,,,,,,,,,,,,,,,,,,,,,,,,,,,,,,,,,,,,,,,,,,,,,,,,,,,,,,,,,,,,,,,,,,,,,,,,,,,,,,,,,,,,,,0,,,,,,,,68,3,acquisition_N,ｼ,ﾌ,right,nl,m,Stimuli/Encoding/Toy_Boat.jpg,4,1,neg,A,,,,,,0,67,67,67,1,,,,,,,,,,,,,,,,,
,,10,001,2023-05-08_11h52.19.380,Experiment_Tuerk,2022.2.4,MacIntel,62.5,,,,,,,,,,,,,,,,,,,,,,,,,,,,,,,,,,,,,,,,,,,,,,,,,,,,,,,,,,,,,,,,,,,,,,,,,,,,,,,,,,,,,,,,,,,,,,,,,,,,,,,,,,,,,,,,,,c,1,,,,,,,,69,3,acquisition_N,ｼ,ﾌ,left,loss,c,Stimuli/Encoding/KitchenCloth.jpg,5,1,neg,A,0.115,,,,,0,68,68,68,1,,,,,,,,,,,,,,,,,
,,10,001,2023-05-08_11h52.19.380,Experiment_Tuerk,2022.2.4,MacIntel,62.5,,,,,,,,,,,,,,,,,,,,,,,,,,,,,,,,,,,,,,,,,,,,,,,,,,,,,,,,,,,,,,,,,,,,,,,,,,,,,,,,,,,,,,,,,,,,,,,,,,,,,,,,,,,,,,,,,,m,0,,,,,,,,70,3,acquisition_N,ｼ,ﾌ,left,loss,c,Stimuli/Encoding/Dragonfly.jpg,6,1,neg,A,0.034,,,,,0,69,69,69,1,,,,,,,,,,,,,,,,,
,,10,001,2023-05-08_11h52.19.380,Experiment_Tuerk,2022.2.4,MacIntel,62.5,,,,,,,,,,,,,,,,,,,,,,,,,,,,,,,,,,,,,,,,,,,,,,,,,,,,,,,,,,,,,,,,,,,,,,,,,,,,,,,,,,,,,,,,,,,,,,,,,,,,,,,,,,,,,,,,,,,0,,,,,,,,71,3,acquisition_N,ﾌ,ｼ,right,nl,c,Stimuli/Encoding/Cake_Wedding.jpg,7,0,neg,A,,,,,,0,70,70,70,1,,,,,,,,,,,,,,,,,
,,10,001,2023-05-08_11h52.19.380,Experiment_Tuerk,2022.2.4,MacIntel,62.5,,,,,,,,,,,,,,,,,,,,,,,,,,,,,,,,,,,,,,,,,,,,,,,,,,,,,,,,,,,,,,,,,,,,,,,,,,,,,,,,,,,,,,,,,,,,,,,,,,,,,,,,,,,,,,,,,,,0,,,,,,,,72,3,acquisition_N,ｼ,ﾌ,right,loss,m,Stimuli/Encoding/Mitt_Oven.jpg,8,0,neg,A,,,,,,0,71,71,71,1,,,,,,,,,,,,,,,,,
,,10,001,2023-05-08_11h52.19.380,Experiment_Tuerk,2022.2.4,MacIntel,62.5,,,,,,,,,,,,,,,,,,,,,,,,,,,,,,,,,,,,,,,,,,,,,,,,,,,,,,,,,,,,,,,,,,,,,,,,,,,,,,,,,,,,,,,,,,,,,,,,,,,,,,,,,,,,,,,,,,m,1,,,,,,,,73,3,acquisition_N,ﾌ,ｼ,left,loss,m,Stimuli/Encoding/Cup_Styrofoam.jpg,9,0,neg,A,0.002,,,,,0,72,72,72,1,,,,,,,,,,,,,,,,,
,,10,001,2023-05-08_11h52.19.380,Experiment_Tuerk,2022.2.4,MacIntel,62.5,,,,,,,,,,,,,,,,,,,,,,,,,,,,,,,,,,,,,,,,,,,,,,,,,,,,,,,,,,,,,,,,,,,,,,,,,,,,,,,,,,,,,,,,,,,,,,,,,,,,,,,,,,,,,,,,,,m,1,,,,,,,,74,3,acquisition_N,ﾌ,ｼ,left,nl,m,Stimuli/Encoding/MobilityScooter.jpg,10,1,neg,A,0.034,,,,,0,73,73,73,1,,,,,,,,,,,,,,,,,
,,10,001,2023-05-08_11h52.19.380,Experiment_Tuerk,2022.2.4,MacIntel,62.5,,,,,,,,,,,,,,,,,,,,,,,,,,,,,,,,,,,,,,,,,,,,,,,,,,,,,,,,,,,,,,,,,,,,,,,,,,,,,,,,,,,,,,,,,,,,,,,,,,,,,,,,,,,,,,,,,,c,0,,,,,,,,75,3,acquisition_N,ﾌ,ｼ,left,loss,m,Stimuli/Encoding/HairScrunchie.jpg,11,0,neg,A,0.02,,,,,0,74,74,74,1,,,,,,,,,,,,,,,,,
,,10,001,2023-05-08_11h52.19.380,Experiment_Tuerk,2022.2.4,MacIntel,62.5,,,,,,,,,,,,,,,,,,,,,,,,,,,,,,,,,,,,,,,,,,,,,,,,,,,,,,,,,,,,,,,,,,,,,,,,,,,,,,,,,,,,,,,,,,,,,,,,,,,,,,,,,,,,,,,,,,m,0,,,,,,,,76,3,acquisition_N,ｼ,ﾌ,left,loss,c,Stimuli/Encoding/Perfume.jpg,12,1,neg,A,0.033,,,,,0,75,75,75,1,,,,,,,,,,,,,,,,,
,,10,001,2023-05-08_11h52.19.380,Experiment_Tuerk,2022.2.4,MacIntel,62.5,,,,,,,,,,,,,,,,,,,,,,,,,,,,,,,,,,,,,,,,,,,,,,,,,,,,,,,,,,,,,,,,,,,,,,,,,,,,,,,,,,,,,,,,,,,,,,,,,,,,,,,,,,,,,,,,,,c,0,,,,,,,,77,3,acquisition_N,ｼ,ﾌ,right,nl,m,Stimuli/Encoding/Goat.jpg,13,1,neg,A,0.039,,,,,0,76,76,76,1,,,,,,,,,,,,,,,,,
,,10,001,2023-05-08_11h52.19.380,Experiment_Tuerk,2022.2.4,MacIntel,62.5,,,,,,,,,,,,,,,,,,,,,,,,,,,,,,,,,,,,,,,,,,,,,,,,,,,,,,,,,,,,,,,,,,,,,,,,,,,,,,,,,,,,,,,,,,,,,,,,,,,,,,,,,,,,,,,,,,,0,,,,,,,,78,3,acquisition_N,ﾌ,ｼ,left,nl,m,Stimuli/Encoding/Hottub.jpg,14,1,neg,A,,,,,,0,77,77,77,1,,,,,,,,,,,,,,,,,
,,10,001,2023-05-08_11h52.19.380,Experiment_Tuerk,2022.2.4,MacIntel,62.5,,,,,,,,,,,,,,,,,,,,,,,,,,,,,,,,,,,,,,,,,,,,,,,,,,,,,,,,,,,,,,,,,,,,,,,,,,,,,,,,,,,,,,,,,,,,,,,,,,,,,,,,,,,,,,,,,,,0,,,,,,,,79,3,acquisition_N,ｼ,ﾌ,left,loss,c,Stimuli/Encoding/Hotdog_Weiner.jpg,15,1,neg,A,,,,,,0,78,78,78,1,,,,,,,,,,,,,,,,,
,,10,001,2023-05-08_11h52.19.380,Experiment_Tuerk,2022.2.4,MacIntel,62.5,,,,,,,,,,,,,,,,,,,,,,,,,,,,,,,,,,,,,,,,,,,,,,,,,,,,,,,,,,,,,,,,,,,,,,,,,,,,,,,,,,,,,,,,,,,,,,,,,,,,,,,,,,,,,,,,,,m,0,,,,,,,,80,3,acquisition_N,ﾌ,ｼ,right,loss,c,Stimuli/Encoding/Stamp.jpg,16,1,neg,A,0.018,,,,,0,79,79,79,1,,,,,,,,,,,,,,,,,
,,10,001,2023-05-08_11h52.19.380,Experiment_Tuerk,2022.2.4,MacIntel,62.5,,,,,,,,,,,,,,,,,,,,,,,,,,,,,,,,,,,,,,,,,,,,,,,,,,,,,,,,,,,,,,,,,,,,,,,,,,,,,,,,,,,,,,,,,,,,,,,,,,,,,,,,,,,,,,,,,,m,0,,,,,,,,81,3,acquisition_N,ﾌ,ｼ,right,loss,c,Stimuli/Encoding/Bird_Toucan.jpg,17,1,neg,A,0.118,,,,,0,80,80,80,1,,,,,,,,,,,,,,,,,
,,10,001,2023-05-08_11h52.19.380,Experiment_Tuerk,2022.2.4,MacIntel,62.5,,,,,,,,,,,,,,,,,,,,,,,,,,,,,,,,,,,,,,,,,,,,,,,,,,,,,,,,,,,,,,,,,,,,,,,,,,,,,,,,,,,,,,,,,,,,,,,,,,,,,,,,,,,,,,,,,,m,0,,,,,,,,82,3,acquisition_N,ﾌ,ｼ,right,nl,c,Stimuli/Encoding/Aquarium.jpg,18,0,neg,A,0.017,,,,,0,81,81,81,1,,,,,,,,,,,,,,,,,
,,10,001,2023-05-08_11h52.19.380,Experiment_Tuerk,2022.2.4,MacIntel,62.5,,,,,,,,,,,,,,,,,,,,,,,,,,,,,,,,,,,,,,,,,,,,,,,,,,,,,,,,,,,,,,,,,,,,,,,,,,,,,,,,,,,,,,,,,,,,,,,,,,,,,,,,,,,,,,,,,,m,1,,,,,,,,83,3,acquisition_N,ｼ,ﾌ,right,nl,m,Stimuli/Encoding/Megaphone.jpg,19,1,neg,A,0.116,,,,,0,82,82,82,1,,,,,,,,,,,,,,,,,
,,10,001,2023-05-08_11h52.19.380,Experiment_Tuerk,2022.2.4,MacIntel,62.5,,,,,,,,,,,,,,,,,,,,,,,,,,,,,,,,,,,,,,,,,,,,,,,,,,,,,,,,,,,,,,,,,,,,,,,,,,,,,,,,,,,,,,,,,,,,,,,,,,,,,,,,,,,,,,,,,,m,0,,,,,,,,84,3,acquisition_N,ｼ,ﾌ,left,loss,c,Stimuli/Encoding/PirateFlag.jpg,20,1,neg,A,0.507,,,,,0,83,83,83,1,,,,,,,,,,,,,,,,,
,,10,001,2023-05-08_11h52.19.380,Experiment_Tuerk,2022.2.4,MacIntel,62.5,,,,,,,,,,,,,,,,,,,,,,,,,,,,,,,,,,,,,,,,,,,,,,,,,,,,,,,,,,,,,,,,,,,,,,,,,,,,,,,,,,,,,,,,,,,,,,,,,,,,,,,,,,,,,,,,,,m,1,,,,,,,,85,3,acquisition_N,ｼ,ﾌ,right,loss,m,Stimuli/Encoding/Tractor_Yellow.jpg,21,0,neg,A,0.203,,,,,0,84,84,84,1,,,,,,,,,,,,,,,,,
,,10,001,2023-05-08_11h52.19.380,Experiment_Tuerk,2022.2.4,MacIntel,62.5,,,,,,,,,,,,,,,,,,,,,,,,,,,,,,,,,,,,,,,,,,,,,,,,,,,,,,,,,,,,,,,,,,,,,,,,,,,,,,,,,,,,,,,,,,,,,,,,,,,,,,,,,,,,,,,,,,m,0,,,,,,,,86,3,acquisition_N,ﾌ,ｼ,right,loss,c,Stimuli/Encoding/Bicycle_Kids.jpg,22,1,neg,A,0.117,,,,,0,85,85,85,1,,,,,,,,,,,,,,,,,
,,10,001,2023-05-08_11h52.19.380,Experiment_Tuerk,2022.2.4,MacIntel,62.5,,,,,,,,,,,,,,,,,,,,,,,,,,,,,,,,,,,,,,,,,,,,,,,,,,,,,,,,,,,,,,,,,,,,,,,,,,,,,,,,,,,,,,,,,,,,,,,,,,,,,,,,,,,,,,,,,,m,1,,,,,,,,87,3,acquisition_N,ﾌ,ｼ,left,nl,m,Stimuli/Encoding/Compact_Powder.jpg,23,1,neg,A,0.075,,,,,0,86,86,86,1,,,,,,,,,,,,,,,,,
,,10,001,2023-05-08_11h52.19.380,Experiment_Tuerk,2022.2.4,MacIntel,62.5,,,,,,,,,,,,,,,,,,,,,,,,,,,,,,,,,,,,,,,,,,,,,,,,,,,,,,,,,,,,,,,,,,,,,,,,,,,,,,,,,,,,,,,,,,,,,,,,,,,,,,,,,,,,,,,,,,m,1,,,,,,,,88,3,acquisition_N,ﾌ,ｼ,left,nl,m,Stimuli/Encoding/Boat_Dinghy.jpg,24,1,neg,A,0.133,,,,,0,87,87,87,1,,,,,,,,,,,,,,,,,
,,10,001,2023-05-08_11h52.19.380,Experiment_Tuerk,2022.2.4,MacIntel,62.5,,,,,,,,,,,,,,,,,,,,,,,,,,,,,,,,,,,,,,,,,,,,,,,,,,,,,,,,,,,,,,,,,,,,,,,,,,,,,,,,,,,,,,,,,,,,,,,,,,,,,,,,,,,,,,,,,,m,0,,,,,,,,89,3,acquisition_N,ｼ,ﾌ,left,loss,c,Stimuli/Encoding/MeterElectric.jpg,25,1,neg,A,0.067,,,,,0,88,88,88,1,,,,,,,,,,,,,,,,,
,,10,001,2023-05-08_11h52.19.380,Experiment_Tuerk,2022.2.4,MacIntel,62.5,,,,,,,,,,,,,,,,,,,,,,,,,,,,,,,,,,,,,,,,,,,,,,,,,,,,,,,,,,,,,,,,,,,,,,,,,,,,,,,,,,,,,,,,,,,,,,,,,,,,,,,,,,,,,,,,,,m,1,,,,,,,,90,3,acquisition_N,ｼ,ﾌ,right,nl,m,Stimuli/Encoding/Ball_Disco.jpg,26,1,neg,A,0.168,,,,,0,89,89,89,1,,,,,,,,,,,,,,,,,
,,10,001,2023-05-08_11h52.19.380,Experiment_Tuerk,2022.2.4,MacIntel,62.5,,,,,,,,,,,,,,,,,,,,,,,,,,,,,,,,,,,,,,,,,,,,,,,,,,,,,,,,,,,,,,,,,,,,,,,,,,,,,,,,,,,,,,,,,,,,,,,,,,,,,,,,,,,,,,,,,,m,0,,,,,,,,91,3,acquisition_N,ﾌ,ｼ,right,loss,c,Stimuli/Encoding/RamAnimal.jpg,27,1,neg,A,0.117,,,,,0,90,90,90,1,,,,,,,,,,,,,,,,,
,,10,001,2023-05-08_11h52.19.380,Experiment_Tuerk,2022.2.4,MacIntel,62.5,,,,,,,,,,,,,,,,,,,,,,,,,,,,,,,,,,,,,,,,,,,,,,,,,,,,,,,,,,,,,,,,,,,,,,,,,,,,,,,,,,,,,,,,,,,,,,,,,,,,,,,,,,,,,,,,,,c,1,,,,,,,,92,3,acquisition_N,ﾌ,ｼ,right,loss,c,Stimuli/Encoding/Boat_Sail.jpg,28,1,neg,A,0.101,,,,,0,91,91,91,1,,,,,,,,,,,,,,,,,
,,10,001,2023-05-08_11h52.19.380,Experiment_Tuerk,2022.2.4,MacIntel,62.5,,,,,,,,,,,,,,,,,,,,,,,,,,,,,,,,,,,,,,,,,,,,,,,,,,,,,,,,,,,,,,,,,,,,,,,,,,,,,,,,,,,,,,,,,,,,,,,,,,,,,,,,,,,,,,,,,,m,1,,,,,,,,93,3,acquisition_N,ﾌ,ｼ,left,nl,m,Stimuli/Encoding/Door_Green.jpg,29,1,neg,A,0.008,,,,,0,92,92,92,1,,,,,,,,,,,,,,,,,
