key_resp_beginning.keys,key_resp_beginning.rt,participant,session,date,expName,psychopyVersion,OS,frameRate,key_resp_instr_behavior.keys,key_resp_instr_behavior.rt,key_resp_instr_scales.keys,key_resp_instr_scales.rt,key_resp_PANAS_1.keys,key_resp_PANAS_1.rt,key_resp_PANAS_2.keys,key_resp_PANAS_2.rt,slider_PANAS.response,key_resp_PANAS.keys,key_resp_PANAS.rt,trials_PANAS.thisRepN,trials_PANAS.thisTrialN,trials_PANAS.thisN,trials_PANAS.thisIndex,trials_PANAS.ran,adjective,posneg,panasnum,PANASLoop.thisRepN,PANASLoop.thisTrialN,PANASLoop.thisN,PANASLoop.thisIndex,PANASLoop.ran,OrderofScales.thisRepN,OrderofScales.thisTrialN,OrderofScales.thisN,OrderofScales.thisIndex,OrderofScales.ran,nRepsPANAS,nRepsBDI,nRepsSHAPS,nRepsSTAI,key_resp_Instr_SHAPS.keys,key_resp_Instr_SHAPS.rt,key_resp_instr_SHAPS_2.keys,key_resp_instr_SHAPS_2.rt,slider_SHAPS.response,key_resp_SHAPS.keys,key_resp_SHAPS.rt,trials_SHAPS.thisRepN,trials_SHAPS.thisTrialN,trials_SHAPS.thisN,trials_SHAPS.thisIndex,trials_SHAPS.ran,statement,SHAPSLoop.thisRepN,SHAPSLoop.thisTrialN,SHAPSLoop.thisN,SHAPSLoop.thisIndex,SHAPSLoop.ran,key_resp.keys,key_resp.rt,key_resp_instr_STAI_state_2.keys,key_resp_instr_STAI_state_2.rt,slider_STAI_state.response,key_resp_STAI_state.keys,key_resp_STAI_state.rt,trials_STAI_state.thisRepN,trials_STAI_state.thisTrialN,trials_STAI_state.thisN,trials_STAI_state.thisIndex,trials_STAI_state.ran,key_resp_STAI_2.keys,key_resp_STAI_2.rt,slider_STAI_trait.response,key_resp_STAI_trait.keys,key_resp_STAI_trait.rt,trials_STAI_trait.thisRepN,trials_STAI_trait.thisTrialN,trials_STAI_trait.thisN,trials_STAI_trait.thisIndex,trials_STAI_trait.ran,STAILoop.thisRepN,STAILoop.thisTrialN,STAILoop.thisN,STAILoop.thisIndex,STAILoop.ran,key_resp_BDI_1.keys,key_resp_BDI_1.rt,key_resp_BDI_2.keys,key_resp_BDI_2.rt,key_resp_BDI_trials.keys,key_resp_BDI_trials.rt,trials_BDI.thisRepN,trials_BDI.thisTrialN,trials_BDI.thisN,trials_BDI.thisIndex,trials_BDI.ran,Title,statement_1,statement_2,statement_3,statement_4,BDILoop.thisRepN,BDILoop.thisTrialN,BDILoop.thisN,BDILoop.thisIndex,BDILoop.ran,key_resp_instr_1.keys,key_resp_instr_1.rt,key_resp_instr_2.keys,key_resp_instr_2.rt,key_resp_instr_3.keys,key_resp_instr_3.rt,key_resp_instr_3b.keys,key_resp_instr_3b.rt,key_resp_instr_4.keys,key_resp_instr_4.rt,key_resp_instr_5.keys,key_resp_instr_5.rt,key_resp_instr_practice_b.keys,key_resp_instr_practice_b.rt,key_resp_trial.keys,key_resp_trial.corr,key_resp_trial.rt,key_resp_repeat_practice.keys,key_resp_end_experiment.keys,Practice_B.thisRepN,Practice_B.thisTrialN,Practice_B.thisN,Practice_B.thisIndex,Practice_B.ran,Trial_nr,Block_nr,Block_cond,Symbol_left,Symbol_right,Highlighted,Outcome,corrAns,Image,Trial_within_block,Trial_cond,Block_value,key_ass,key_resp_repeat_practice.rt,key_resp_instr_main_b.keys,key_resp_instr_main_b.rt,key_resp_pause.keys,Main_B.thisRepN,Main_B.thisTrialN,Main_B.thisN,Main_B.thisIndex,Main_B.ran,key_resp_pause.rt,Group_B.thisRepN,Group_B.thisTrialN,Group_B.thisN,Group_B.thisIndex,Group_B.ran,key_resp_memory.keys,key_resp_memory.rt,memory_loop.thisRepN,memory_loop.thisTrialN,memory_loop.thisN,memory_loop.thisIndex,memory_loop.ran,Memory_cond,Phase,key_resp_end.keys,key_resp_end.rt
space,3.927,11,001,2023-05-04_10h03.28.821,Experiment_Tuerk,2022.2.4,Win32,60.38647343,,,,,,,,,,,,,,,,,,,,,,,,,,,,,,,,,,,,,,,,,,,,,,,,,,,,,,,,,,,,,,,,,,,,,,,,,,,,,,,,,,,,,,,,,,,,,,,,,,,,,,,,,,,,,,,,,,,,,,,,,,,,,,,,,,,,,,,,,,,,,,,,,,,,,,,,,,,,,,,,,,
,,11,001,2023-05-04_10h03.28.821,Experiment_Tuerk,2022.2.4,Win32,60.38647343,space,15.283,,,,,,,,,,,,,,,,,,,,,,,,,,,,,,,,,,,,,,,,,,,,,,,,,,,,,,,,,,,,,,,,,,,,,,,,,,,,,,,,,,,,,,,,,,,,,,,,,,,,,,,,,,,,,,,,,,,,,,,,,,,,,,,,,,,,,,,,,,,,,,,,,,,,,,,,,,,,,,,,
,,11,001,2023-05-04_10h03.28.821,Experiment_Tuerk,2022.2.4,Win32,60.38647343,,,space,5.307,,,,,,,,,,,,,,,,,,,,,,,,,,,,,,,,,,,,,,,,,,,,,,,,,,,,,,,,,,,,,,,,,,,,,,,,,,,,,,,,,,,,,,,,,,,,,,,,,,,,,,,,,,,,,,,,,,,,,,,,,,,,,,,,,,,,,,,,,,,,,,,,,,,,,,,,,,,,,,
,,11,001,2023-05-04_10h03.28.821,Experiment_Tuerk,2022.2.4,Win32,60.38647343,,,,,space,13.193,space,8.976,4,return,6.378,0,0,0,0,1,interested,pos,1,,,,,,,,,,,,,,,,,,,,,,,,,,,,,,,,,,,,,,,,,,,,,,,,,,,,,,,,,,,,,,,,,,,,,,,,,,,,,,,,,,,,,,,,,,,,,,,,,,,,,,,,,,,,,,,,,,,,,,,,,,,,,,,,,,,,,,,,,,,,,,,
,,11,001,2023-05-04_10h03.28.821,Experiment_Tuerk,2022.2.4,Win32,60.38647343,,,,,,,,,2,return,4.718,0,1,1,1,1,distressed,neg,2,,,,,,,,,,,,,,,,,,,,,,,,,,,,,,,,,,,,,,,,,,,,,,,,,,,,,,,,,,,,,,,,,,,,,,,,,,,,,,,,,,,,,,,,,,,,,,,,,,,,,,,,,,,,,,,,,,,,,,,,,,,,,,,,,,,,,,,,,,,,,,,
,,11,001,2023-05-04_10h03.28.821,Experiment_Tuerk,2022.2.4,Win32,60.38647343,,,,,,,,,3,return,2.43,0,2,2,2,1,excited,pos,1,,,,,,,,,,,,,,,,,,,,,,,,,,,,,,,,,,,,,,,,,,,,,,,,,,,,,,,,,,,,,,,,,,,,,,,,,,,,,,,,,,,,,,,,,,,,,,,,,,,,,,,,,,,,,,,,,,,,,,,,,,,,,,,,,,,,,,,,,,,,,,,
,,11,001,2023-05-04_10h03.28.821,Experiment_Tuerk,2022.2.4,Win32,60.38647343,,,,,,,,,1,return,3.253,0,3,3,3,1,upset,neg,2,,,,,,,,,,,,,,,,,,,,,,,,,,,,,,,,,,,,,,,,,,,,,,,,,,,,,,,,,,,,,,,,,,,,,,,,,,,,,,,,,,,,,,,,,,,,,,,,,,,,,,,,,,,,,,,,,,,,,,,,,,,,,,,,,,,,,,,,,,,,,,,
,,11,001,2023-05-04_10h03.28.821,Experiment_Tuerk,2022.2.4,Win32,60.38647343,,,,,,,,,3,return,5.81,0,4,4,4,1,strong,pos,1,,,,,,,,,,,,,,,,,,,,,,,,,,,,,,,,,,,,,,,,,,,,,,,,,,,,,,,,,,,,,,,,,,,,,,,,,,,,,,,,,,,,,,,,,,,,,,,,,,,,,,,,,,,,,,,,,,,,,,,,,,,,,,,,,,,,,,,,,,,,,,,
,,11,001,2023-05-04_10h03.28.821,Experiment_Tuerk,2022.2.4,Win32,60.38647343,,,,,,,,,1,return,2.904,0,5,5,5,1,guilty,neg,2,,,,,,,,,,,,,,,,,,,,,,,,,,,,,,,,,,,,,,,,,,,,,,,,,,,,,,,,,,,,,,,,,,,,,,,,,,,,,,,,,,,,,,,,,,,,,,,,,,,,,,,,,,,,,,,,,,,,,,,,,,,,,,,,,,,,,,,,,,,,,,,
,,11,001,2023-05-04_10h03.28.821,Experiment_Tuerk,2022.2.4,Win32,60.38647343,,,,,,,,,1,return,2.552,0,6,6,6,1,scared,neg,2,,,,,,,,,,,,,,,,,,,,,,,,,,,,,,,,,,,,,,,,,,,,,,,,,,,,,,,,,,,,,,,,,,,,,,,,,,,,,,,,,,,,,,,,,,,,,,,,,,,,,,,,,,,,,,,,,,,,,,,,,,,,,,,,,,,,,,,,,,,,,,,
,,11,001,2023-05-04_10h03.28.821,Experiment_Tuerk,2022.2.4,Win32,60.38647343,,,,,,,,,1,return,24.465,0,7,7,7,1,hostile,neg,2,,,,,,,,,,,,,,,,,,,,,,,,,,,,,,,,,,,,,,,,,,,,,,,,,,,,,,,,,,,,,,,,,,,,,,,,,,,,,,,,,,,,,,,,,,,,,,,,,,,,,,,,,,,,,,,,,,,,,,,,,,,,,,,,,,,,,,,,,,,,,,,
,,11,001,2023-05-04_10h03.28.821,Experiment_Tuerk,2022.2.4,Win32,60.38647343,,,,,,,,,3,return,2.748,0,8,8,8,1,enthusiastic,pos,1,,,,,,,,,,,,,,,,,,,,,,,,,,,,,,,,,,,,,,,,,,,,,,,,,,,,,,,,,,,,,,,,,,,,,,,,,,,,,,,,,,,,,,,,,,,,,,,,,,,,,,,,,,,,,,,,,,,,,,,,,,,,,,,,,,,,,,,,,,,,,,,
,,11,001,2023-05-04_10h03.28.821,Experiment_Tuerk,2022.2.4,Win32,60.38647343,,,,,,,,,3,return,2.497,0,9,9,9,1,proud,pos,1,,,,,,,,,,,,,,,,,,,,,,,,,,,,,,,,,,,,,,,,,,,,,,,,,,,,,,,,,,,,,,,,,,,,,,,,,,,,,,,,,,,,,,,,,,,,,,,,,,,,,,,,,,,,,,,,,,,,,,,,,,,,,,,,,,,,,,,,,,,,,,,
,,11,001,2023-05-04_10h03.28.821,Experiment_Tuerk,2022.2.4,Win32,60.38647343,,,,,,,,,1,return,2.967,0,10,10,10,1,irritable,neg,2,,,,,,,,,,,,,,,,,,,,,,,,,,,,,,,,,,,,,,,,,,,,,,,,,,,,,,,,,,,,,,,,,,,,,,,,,,,,,,,,,,,,,,,,,,,,,,,,,,,,,,,,,,,,,,,,,,,,,,,,,,,,,,,,,,,,,,,,,,,,,,,
,,11,001,2023-05-04_10h03.28.821,Experiment_Tuerk,2022.2.4,Win32,60.38647343,,,,,,,,,1,return,1.905,0,11,11,11,1,alert,pos,1,,,,,,,,,,,,,,,,,,,,,,,,,,,,,,,,,,,,,,,,,,,,,,,,,,,,,,,,,,,,,,,,,,,,,,,,,,,,,,,,,,,,,,,,,,,,,,,,,,,,,,,,,,,,,,,,,,,,,,,,,,,,,,,,,,,,,,,,,,,,,,,
,,11,001,2023-05-04_10h03.28.821,Experiment_Tuerk,2022.2.4,Win32,60.38647343,,,,,,,,,1,return,1.843,0,12,12,12,1,ashamed,neg,2,,,,,,,,,,,,,,,,,,,,,,,,,,,,,,,,,,,,,,,,,,,,,,,,,,,,,,,,,,,,,,,,,,,,,,,,,,,,,,,,,,,,,,,,,,,,,,,,,,,,,,,,,,,,,,,,,,,,,,,,,,,,,,,,,,,,,,,,,,,,,,,
,,11,001,2023-05-04_10h03.28.821,Experiment_Tuerk,2022.2.4,Win32,60.38647343,,,,,,,,,4,return,2.288,0,13,13,13,1,inspired,pos,1,,,,,,,,,,,,,,,,,,,,,,,,,,,,,,,,,,,,,,,,,,,,,,,,,,,,,,,,,,,,,,,,,,,,,,,,,,,,,,,,,,,,,,,,,,,,,,,,,,,,,,,,,,,,,,,,,,,,,,,,,,,,,,,,,,,,,,,,,,,,,,,
,,11,001,2023-05-04_10h03.28.821,Experiment_Tuerk,2022.2.4,Win32,60.38647343,,,,,,,,,1,return,2.794,0,14,14,14,1,nervous,neg,2,,,,,,,,,,,,,,,,,,,,,,,,,,,,,,,,,,,,,,,,,,,,,,,,,,,,,,,,,,,,,,,,,,,,,,,,,,,,,,,,,,,,,,,,,,,,,,,,,,,,,,,,,,,,,,,,,,,,,,,,,,,,,,,,,,,,,,,,,,,,,,,
,,11,001,2023-05-04_10h03.28.821,Experiment_Tuerk,2022.2.4,Win32,60.38647343,,,,,,,,,4,return,10.992,0,15,15,15,1,determined,pos,1,,,,,,,,,,,,,,,,,,,,,,,,,,,,,,,,,,,,,,,,,,,,,,,,,,,,,,,,,,,,,,,,,,,,,,,,,,,,,,,,,,,,,,,,,,,,,,,,,,,,,,,,,,,,,,,,,,,,,,,,,,,,,,,,,,,,,,,,,,,,,,,
,,11,001,2023-05-04_10h03.28.821,Experiment_Tuerk,2022.2.4,Win32,60.38647343,,,,,,,,,4,return,3.691,0,16,16,16,1,attentive,neg,2,,,,,,,,,,,,,,,,,,,,,,,,,,,,,,,,,,,,,,,,,,,,,,,,,,,,,,,,,,,,,,,,,,,,,,,,,,,,,,,,,,,,,,,,,,,,,,,,,,,,,,,,,,,,,,,,,,,,,,,,,,,,,,,,,,,,,,,,,,,,,,,
,,11,001,2023-05-04_10h03.28.821,Experiment_Tuerk,2022.2.4,Win32,60.38647343,,,,,,,,,1,return,8.818,0,17,17,17,1,jittery,neg,2,,,,,,,,,,,,,,,,,,,,,,,,,,,,,,,,,,,,,,,,,,,,,,,,,,,,,,,,,,,,,,,,,,,,,,,,,,,,,,,,,,,,,,,,,,,,,,,,,,,,,,,,,,,,,,,,,,,,,,,,,,,,,,,,,,,,,,,,,,,,,,,
,,11,001,2023-05-04_10h03.28.821,Experiment_Tuerk,2022.2.4,Win32,60.38647343,,,,,,,,,4,return,2.986,0,18,18,18,1,active,pos,1,,,,,,,,,,,,,,,,,,,,,,,,,,,,,,,,,,,,,,,,,,,,,,,,,,,,,,,,,,,,,,,,,,,,,,,,,,,,,,,,,,,,,,,,,,,,,,,,,,,,,,,,,,,,,,,,,,,,,,,,,,,,,,,,,,,,,,,,,,,,,,,
,,11,001,2023-05-04_10h03.28.821,Experiment_Tuerk,2022.2.4,Win32,60.38647343,,,,,,,,,1,return,4.001,0,19,19,19,1,afraid,neg,2,,,,,,,,,,,,,,,,,,,,,,,,,,,,,,,,,,,,,,,,,,,,,,,,,,,,,,,,,,,,,,,,,,,,,,,,,,,,,,,,,,,,,,,,,,,,,,,,,,,,,,,,,,,,,,,,,,,,,,,,,,,,,,,,,,,,,,,,,,,,,,,
,,11,001,2023-05-04_10h03.28.821,Experiment_Tuerk,2022.2.4,Win32,60.38647343,,,,,,,,,,,,,,,,,,,,0,0,0,0,1,,,,,,,,,,,,,,,,,,,,,,,,,,,,,,,,,,,,,,,,,,,,,,,,,,,,,,,,,,,,,,,,,,,,,,,,,,,,,,,,,,,,,,,,,,,,,,,,,,,,,,,,,,,,,,,,,,,,,,,,,,,,,,,,,,,,,,,,,,
,,11,001,2023-05-04_10h03.28.821,Experiment_Tuerk,2022.2.4,Win32,60.38647343,,,,,,,,,,,,,,,,,,,,,,,,,0,0,0,0,1,1,0,0,0,,,,,,,,,,,,,,,,,,,,,,,,,,,,,,,,,,,,,,,,,,,,,,,,,,,,,,,,,,,,,,,,,,,,,,,,,,,,,,,,,,,,,,,,,,,,,,,,,,,,,,,,,,,,,,,,,,,,,,,,,,,,,,,,,
,,11,001,2023-05-04_10h03.28.821,Experiment_Tuerk,2022.2.4,Win32,60.38647343,,,,,,,,,,,,,,,,,,,,,,,,,,,,,,,,,,space,17.457,space,2.801,3,return,6.46,0,0,0,0,1,1. I would enjoy my favourite television or radio programme: ,,,,,,,,,,,,,,,,,,,,,,,,,,,,,,,,,,,,,,,,,,,,,,,,,,,,,,,,,,,,,,,,,,,,,,,,,,,,,,,,,,,,,,,,,,,,,,,,,,,,,,,,,,,,,,,,,,,,
,,11,001,2023-05-04_10h03.28.821,Experiment_Tuerk,2022.2.4,Win32,60.38647343,,,,,,,,,,,,,,,,,,,,,,,,,,,,,,,,,,,,,,4,return,4.133,0,1,1,1,1,2. I would enjoy being with my family or close friends: ,,,,,,,,,,,,,,,,,,,,,,,,,,,,,,,,,,,,,,,,,,,,,,,,,,,,,,,,,,,,,,,,,,,,,,,,,,,,,,,,,,,,,,,,,,,,,,,,,,,,,,,,,,,,,,,,,,,,
,,11,001,2023-05-04_10h03.28.821,Experiment_Tuerk,2022.2.4,Win32,60.38647343,,,,,,,,,,,,,,,,,,,,,,,,,,,,,,,,,,,,,,4,return,4.288,0,2,2,2,1,3. I would find pleasure in my hobbies and pastime: ,,,,,,,,,,,,,,,,,,,,,,,,,,,,,,,,,,,,,,,,,,,,,,,,,,,,,,,,,,,,,,,,,,,,,,,,,,,,,,,,,,,,,,,,,,,,,,,,,,,,,,,,,,,,,,,,,,,,
,,11,001,2023-05-04_10h03.28.821,Experiment_Tuerk,2022.2.4,Win32,60.38647343,,,,,,,,,,,,,,,,,,,,,,,,,,,,,,,,,,,,,,2,return,7.108,0,3,3,3,1,4. I would not be able to enjoy small things like a sunny day or a phone call from a friend:,,,,,,,,,,,,,,,,,,,,,,,,,,,,,,,,,,,,,,,,,,,,,,,,,,,,,,,,,,,,,,,,,,,,,,,,,,,,,,,,,,,,,,,,,,,,,,,,,,,,,,,,,,,,,,,,,,,,
,,11,001,2023-05-04_10h03.28.821,Experiment_Tuerk,2022.2.4,Win32,60.38647343,,,,,,,,,,,,,,,,,,,,,,,,,,,,,,,,,,,,,,4,return,4.461,0,4,4,4,1,5. I would be able to enjoy my favourite meal:,,,,,,,,,,,,,,,,,,,,,,,,,,,,,,,,,,,,,,,,,,,,,,,,,,,,,,,,,,,,,,,,,,,,,,,,,,,,,,,,,,,,,,,,,,,,,,,,,,,,,,,,,,,,,,,,,,,,
,,11,001,2023-05-04_10h03.28.821,Experiment_Tuerk,2022.2.4,Win32,60.38647343,,,,,,,,,,,,,,,,,,,,,,,,,,,,,,,,,,,,,,4,return,4.126,0,5,5,5,1,6. I would enjoy a warm bath or refreshing shower:,,,,,,,,,,,,,,,,,,,,,,,,,,,,,,,,,,,,,,,,,,,,,,,,,,,,,,,,,,,,,,,,,,,,,,,,,,,,,,,,,,,,,,,,,,,,,,,,,,,,,,,,,,,,,,,,,,,,
,,11,001,2023-05-04_10h03.28.821,Experiment_Tuerk,2022.2.4,Win32,60.38647343,,,,,,,,,,,,,,,,,,,,,,,,,,,,,,,,,,,,,,3,return,4.786,0,6,6,6,1,7. I would find pleasure in the scent of flowers or the smell of a fresh sea breeze or freshly baked bread:,,,,,,,,,,,,,,,,,,,,,,,,,,,,,,,,,,,,,,,,,,,,,,,,,,,,,,,,,,,,,,,,,,,,,,,,,,,,,,,,,,,,,,,,,,,,,,,,,,,,,,,,,,,,,,,,,,,,
,,11,001,2023-05-04_10h03.28.821,Experiment_Tuerk,2022.2.4,Win32,60.38647343,,,,,,,,,,,,,,,,,,,,,,,,,,,,,,,,,,,,,,4,return,2.755,0,7,7,7,1,8. I would enjoy seeing other people's smiling faces:,,,,,,,,,,,,,,,,,,,,,,,,,,,,,,,,,,,,,,,,,,,,,,,,,,,,,,,,,,,,,,,,,,,,,,,,,,,,,,,,,,,,,,,,,,,,,,,,,,,,,,,,,,,,,,,,,,,,
,,11,001,2023-05-04_10h03.28.821,Experiment_Tuerk,2022.2.4,Win32,60.38647343,,,,,,,,,,,,,,,,,,,,,,,,,,,,,,,,,,,,,,3,return,5.711,0,8,8,8,1,9. I would enjoy looking smart when I have made an effort with my appearance:,,,,,,,,,,,,,,,,,,,,,,,,,,,,,,,,,,,,,,,,,,,,,,,,,,,,,,,,,,,,,,,,,,,,,,,,,,,,,,,,,,,,,,,,,,,,,,,,,,,,,,,,,,,,,,,,,,,,
,,11,001,2023-05-04_10h03.28.821,Experiment_Tuerk,2022.2.4,Win32,60.38647343,,,,,,,,,,,,,,,,,,,,,,,,,,,,,,,,,,,,,,3,return,4.175,0,9,9,9,1,"10. I would enjoy reading a book, magazine or newspaper:",,,,,,,,,,,,,,,,,,,,,,,,,,,,,,,,,,,,,,,,,,,,,,,,,,,,,,,,,,,,,,,,,,,,,,,,,,,,,,,,,,,,,,,,,,,,,,,,,,,,,,,,,,,,,,,,,,,,
,,11,001,2023-05-04_10h03.28.821,Experiment_Tuerk,2022.2.4,Win32,60.38647343,,,,,,,,,,,,,,,,,,,,,,,,,,,,,,,,,,,,,,1,return,10.499,0,10,10,10,1,"11. If you are still attentive to the test, please press the number one:",,,,,,,,,,,,,,,,,,,,,,,,,,,,,,,,,,,,,,,,,,,,,,,,,,,,,,,,,,,,,,,,,,,,,,,,,,,,,,,,,,,,,,,,,,,,,,,,,,,,,,,,,,,,,,,,,,,,
,,11,001,2023-05-04_10h03.28.821,Experiment_Tuerk,2022.2.4,Win32,60.38647343,,,,,,,,,,,,,,,,,,,,,,,,,,,,,,,,,,,,,,4,return,6.924,0,11,11,11,1,12. I would enjoy a cup of tea or coffee or my favourite drink:,,,,,,,,,,,,,,,,,,,,,,,,,,,,,,,,,,,,,,,,,,,,,,,,,,,,,,,,,,,,,,,,,,,,,,,,,,,,,,,,,,,,,,,,,,,,,,,,,,,,,,,,,,,,,,,,,,,,
,,11,001,2023-05-04_10h03.28.821,Experiment_Tuerk,2022.2.4,Win32,60.38647343,,,,,,,,,,,,,,,,,,,,,,,,,,,,,,,,,,,,,,4,return,4.186,0,12,12,12,1,"13. I would find pleasure in small things, e.g. bright sunny day, a telephone call from a friend:",,,,,,,,,,,,,,,,,,,,,,,,,,,,,,,,,,,,,,,,,,,,,,,,,,,,,,,,,,,,,,,,,,,,,,,,,,,,,,,,,,,,,,,,,,,,,,,,,,,,,,,,,,,,,,,,,,,,
,,11,001,2023-05-04_10h03.28.821,Experiment_Tuerk,2022.2.4,Win32,60.38647343,,,,,,,,,,,,,,,,,,,,,,,,,,,,,,,,,,,,,,4,return,3.571,0,13,13,13,1,14. I would be able to enjoy a beautiful landscape or view: ,,,,,,,,,,,,,,,,,,,,,,,,,,,,,,,,,,,,,,,,,,,,,,,,,,,,,,,,,,,,,,,,,,,,,,,,,,,,,,,,,,,,,,,,,,,,,,,,,,,,,,,,,,,,,,,,,,,,
,,11,001,2023-05-04_10h03.28.821,Experiment_Tuerk,2022.2.4,Win32,60.38647343,,,,,,,,,,,,,,,,,,,,,,,,,,,,,,,,,,,,,,3,return,3.203,0,14,14,14,1,15. I would not enjoy my favourite television or radio programme:,,,,,,,,,,,,,,,,,,,,,,,,,,,,,,,,,,,,,,,,,,,,,,,,,,,,,,,,,,,,,,,,,,,,,,,,,,,,,,,,,,,,,,,,,,,,,,,,,,,,,,,,,,,,,,,,,,,,
,,11,001,2023-05-04_10h03.28.821,Experiment_Tuerk,2022.2.4,Win32,60.38647343,,,,,,,,,,,,,,,,,,,,,,,,,,,,,,,,,,,,,,3,return,4.871,0,15,15,15,1,16. I would get pleasure from helping others:,,,,,,,,,,,,,,,,,,,,,,,,,,,,,,,,,,,,,,,,,,,,,,,,,,,,,,,,,,,,,,,,,,,,,,,,,,,,,,,,,,,,,,,,,,,,,,,,,,,,,,,,,,,,,,,,,,,,
,,11,001,2023-05-04_10h03.28.821,Experiment_Tuerk,2022.2.4,Win32,60.38647343,,,,,,,,,,,,,,,,,,,,,,,,,,,,,,,,,,,,,,3,return,3.54,0,16,16,16,1,17. I would feel pleasure when I receive praise from other people:,,,,,,,,,,,,,,,,,,,,,,,,,,,,,,,,,,,,,,,,,,,,,,,,,,,,,,,,,,,,,,,,,,,,,,,,,,,,,,,,,,,,,,,,,,,,,,,,,,,,,,,,,,,,,,,,,,,,
,,11,001,2023-05-04_10h03.28.821,Experiment_Tuerk,2022.2.4,Win32,60.38647343,,,,,,,,,,,,,,,,,,,,,,,,,,,,,,,,,,,,,,,,,,,,,,,0,0,0,0,1,,,,,,,,,,,,,,,,,,,,,,,,,,,,,,,,,,,,,,,,,,,,,,,,,,,,,,,,,,,,,,,,,,,,,,,,,,,,,,,,,,,,,,,,,,,,,,,,,,,,,,,,,,,,,,,
,,11,001,2023-05-04_10h03.28.821,Experiment_Tuerk,2022.2.4,Win32,60.38647343,,,,,,,,,,,,,,,,,,,,,,,,,0,1,1,2,1,0,0,1,0,,,,,,,,,,,,,,,,,,,,,,,,,,,,,,,,,,,,,,,,,,,,,,,,,,,,,,,,,,,,,,,,,,,,,,,,,,,,,,,,,,,,,,,,,,,,,,,,,,,,,,,,,,,,,,,,,,,,,,,,,,,,,,,,,
,,11,001,2023-05-04_10h03.28.821,Experiment_Tuerk,2022.2.4,Win32,60.38647343,,,,,,,,,,,,,,,,,,,,,,,,,,,,,,,,,,,,,,,,,,,,,,1. I feel calm.,,,,,,space,20.94,space,3.445,3,return,5.137,0,0,0,0,1,,,,,,,,,,,,,,,,,,,,,,,,,,,,,,,,,,,,,,,,,,,,,,,,,,,,,,,,,,,,,,,,,,,,,,,,,,,,,,,,,,,,,,,,,,,,,,,,,,,
,,11,001,2023-05-04_10h03.28.821,Experiment_Tuerk,2022.2.4,Win32,60.38647343,,,,,,,,,,,,,,,,,,,,,,,,,,,,,,,,,,,,,,,,,,,,,,2. I feel secure.,,,,,,,,,,4,return,2.607,0,1,1,1,1,,,,,,,,,,,,,,,,,,,,,,,,,,,,,,,,,,,,,,,,,,,,,,,,,,,,,,,,,,,,,,,,,,,,,,,,,,,,,,,,,,,,,,,,,,,,,,,,,,,
,,11,001,2023-05-04_10h03.28.821,Experiment_Tuerk,2022.2.4,Win32,60.38647343,,,,,,,,,,,,,,,,,,,,,,,,,,,,,,,,,,,,,,,,,,,,,,3. I am tense.,,,,,,,,,,2,return,14.723,0,2,2,2,1,,,,,,,,,,,,,,,,,,,,,,,,,,,,,,,,,,,,,,,,,,,,,,,,,,,,,,,,,,,,,,,,,,,,,,,,,,,,,,,,,,,,,,,,,,,,,,,,,,,
,,11,001,2023-05-04_10h03.28.821,Experiment_Tuerk,2022.2.4,Win32,60.38647343,,,,,,,,,,,,,,,,,,,,,,,,,,,,,,,,,,,,,,,,,,,,,,4. I feel strained. ,,,,,,,,,,1,return,13.157,0,3,3,3,1,,,,,,,,,,,,,,,,,,,,,,,,,,,,,,,,,,,,,,,,,,,,,,,,,,,,,,,,,,,,,,,,,,,,,,,,,,,,,,,,,,,,,,,,,,,,,,,,,,,
,,11,001,2023-05-04_10h03.28.821,Experiment_Tuerk,2022.2.4,Win32,60.38647343,,,,,,,,,,,,,,,,,,,,,,,,,,,,,,,,,,,,,,,,,,,,,,5. I feel at ease.,,,,,,,,,,3,return,4.373,0,4,4,4,1,,,,,,,,,,,,,,,,,,,,,,,,,,,,,,,,,,,,,,,,,,,,,,,,,,,,,,,,,,,,,,,,,,,,,,,,,,,,,,,,,,,,,,,,,,,,,,,,,,,
,,11,001,2023-05-04_10h03.28.821,Experiment_Tuerk,2022.2.4,Win32,60.38647343,,,,,,,,,,,,,,,,,,,,,,,,,,,,,,,,,,,,,,,,,,,,,,6. I feel upset.,,,,,,,,,,1,return,2.63,0,5,5,5,1,,,,,,,,,,,,,,,,,,,,,,,,,,,,,,,,,,,,,,,,,,,,,,,,,,,,,,,,,,,,,,,,,,,,,,,,,,,,,,,,,,,,,,,,,,,,,,,,,,,
,,11,001,2023-05-04_10h03.28.821,Experiment_Tuerk,2022.2.4,Win32,60.38647343,,,,,,,,,,,,,,,,,,,,,,,,,,,,,,,,,,,,,,,,,,,,,,7. I am presently worrying over possible misfortunes.,,,,,,,,,,1,return,7.632,0,6,6,6,1,,,,,,,,,,,,,,,,,,,,,,,,,,,,,,,,,,,,,,,,,,,,,,,,,,,,,,,,,,,,,,,,,,,,,,,,,,,,,,,,,,,,,,,,,,,,,,,,,,,
,,11,001,2023-05-04_10h03.28.821,Experiment_Tuerk,2022.2.4,Win32,60.38647343,,,,,,,,,,,,,,,,,,,,,,,,,,,,,,,,,,,,,,,,,,,,,,8. I feel satisfied.,,,,,,,,,,3,return,2.271,0,7,7,7,1,,,,,,,,,,,,,,,,,,,,,,,,,,,,,,,,,,,,,,,,,,,,,,,,,,,,,,,,,,,,,,,,,,,,,,,,,,,,,,,,,,,,,,,,,,,,,,,,,,,
,,11,001,2023-05-04_10h03.28.821,Experiment_Tuerk,2022.2.4,Win32,60.38647343,,,,,,,,,,,,,,,,,,,,,,,,,,,,,,,,,,,,,,,,,,,,,,9. I feel frightened.,,,,,,,,,,1,return,2.526,0,8,8,8,1,,,,,,,,,,,,,,,,,,,,,,,,,,,,,,,,,,,,,,,,,,,,,,,,,,,,,,,,,,,,,,,,,,,,,,,,,,,,,,,,,,,,,,,,,,,,,,,,,,,
,,11,001,2023-05-04_10h03.28.821,Experiment_Tuerk,2022.2.4,Win32,60.38647343,,,,,,,,,,,,,,,,,,,,,,,,,,,,,,,,,,,,,,,,,,,,,,10. I feel comfortable.,,,,,,,,,,4,return,2.458,0,9,9,9,1,,,,,,,,,,,,,,,,,,,,,,,,,,,,,,,,,,,,,,,,,,,,,,,,,,,,,,,,,,,,,,,,,,,,,,,,,,,,,,,,,,,,,,,,,,,,,,,,,,,
,,11,001,2023-05-04_10h03.28.821,Experiment_Tuerk,2022.2.4,Win32,60.38647343,,,,,,,,,,,,,,,,,,,,,,,,,,,,,,,,,,,,,,,,,,,,,,11. I feel self-confident.,,,,,,,,,,3,return,2.207,0,10,10,10,1,,,,,,,,,,,,,,,,,,,,,,,,,,,,,,,,,,,,,,,,,,,,,,,,,,,,,,,,,,,,,,,,,,,,,,,,,,,,,,,,,,,,,,,,,,,,,,,,,,,
,,11,001,2023-05-04_10h03.28.821,Experiment_Tuerk,2022.2.4,Win32,60.38647343,,,,,,,,,,,,,,,,,,,,,,,,,,,,,,,,,,,,,,,,,,,,,,12. I feel nervous.,,,,,,,,,,1,return,2.156,0,11,11,11,1,,,,,,,,,,,,,,,,,,,,,,,,,,,,,,,,,,,,,,,,,,,,,,,,,,,,,,,,,,,,,,,,,,,,,,,,,,,,,,,,,,,,,,,,,,,,,,,,,,,
,,11,001,2023-05-04_10h03.28.821,Experiment_Tuerk,2022.2.4,Win32,60.38647343,,,,,,,,,,,,,,,,,,,,,,,,,,,,,,,,,,,,,,,,,,,,,,13. I am jittery.,,,,,,,,,,1,return,13.109,0,12,12,12,1,,,,,,,,,,,,,,,,,,,,,,,,,,,,,,,,,,,,,,,,,,,,,,,,,,,,,,,,,,,,,,,,,,,,,,,,,,,,,,,,,,,,,,,,,,,,,,,,,,,
,,11,001,2023-05-04_10h03.28.821,Experiment_Tuerk,2022.2.4,Win32,60.38647343,,,,,,,,,,,,,,,,,,,,,,,,,,,,,,,,,,,,,,,,,,,,,,14. I feel indecisive.,,,,,,,,,,1,return,4.544,0,13,13,13,1,,,,,,,,,,,,,,,,,,,,,,,,,,,,,,,,,,,,,,,,,,,,,,,,,,,,,,,,,,,,,,,,,,,,,,,,,,,,,,,,,,,,,,,,,,,,,,,,,,,
,,11,001,2023-05-04_10h03.28.821,Experiment_Tuerk,2022.2.4,Win32,60.38647343,,,,,,,,,,,,,,,,,,,,,,,,,,,,,,,,,,,,,,,,,,,,,,15. I don't feel calm.,,,,,,,,,,1,return,2.334,0,14,14,14,1,,,,,,,,,,,,,,,,,,,,,,,,,,,,,,,,,,,,,,,,,,,,,,,,,,,,,,,,,,,,,,,,,,,,,,,,,,,,,,,,,,,,,,,,,,,,,,,,,,,
,,11,001,2023-05-04_10h03.28.821,Experiment_Tuerk,2022.2.4,Win32,60.38647343,,,,,,,,,,,,,,,,,,,,,,,,,,,,,,,,,,,,,,,,,,,,,,16. I am relaxed.,,,,,,,,,,4,return,2.485,0,15,15,15,1,,,,,,,,,,,,,,,,,,,,,,,,,,,,,,,,,,,,,,,,,,,,,,,,,,,,,,,,,,,,,,,,,,,,,,,,,,,,,,,,,,,,,,,,,,,,,,,,,,,
,,11,001,2023-05-04_10h03.28.821,Experiment_Tuerk,2022.2.4,Win32,60.38647343,,,,,,,,,,,,,,,,,,,,,,,,,,,,,,,,,,,,,,,,,,,,,,17. I feel content.,,,,,,,,,,4,return,11.189,0,16,16,16,1,,,,,,,,,,,,,,,,,,,,,,,,,,,,,,,,,,,,,,,,,,,,,,,,,,,,,,,,,,,,,,,,,,,,,,,,,,,,,,,,,,,,,,,,,,,,,,,,,,,
,,11,001,2023-05-04_10h03.28.821,Experiment_Tuerk,2022.2.4,Win32,60.38647343,,,,,,,,,,,,,,,,,,,,,,,,,,,,,,,,,,,,,,,,,,,,,,18. I am worried.,,,,,,,,,,1,return,2.011,0,17,17,17,1,,,,,,,,,,,,,,,,,,,,,,,,,,,,,,,,,,,,,,,,,,,,,,,,,,,,,,,,,,,,,,,,,,,,,,,,,,,,,,,,,,,,,,,,,,,,,,,,,,,
,,11,001,2023-05-04_10h03.28.821,Experiment_Tuerk,2022.2.4,Win32,60.38647343,,,,,,,,,,,,,,,,,,,,,,,,,,,,,,,,,,,,,,,,,,,,,,19. I feel confused.,,,,,,,,,,1,return,2.109,0,18,18,18,1,,,,,,,,,,,,,,,,,,,,,,,,,,,,,,,,,,,,,,,,,,,,,,,,,,,,,,,,,,,,,,,,,,,,,,,,,,,,,,,,,,,,,,,,,,,,,,,,,,,
,,11,001,2023-05-04_10h03.28.821,Experiment_Tuerk,2022.2.4,Win32,60.38647343,,,,,,,,,,,,,,,,,,,,,,,,,,,,,,,,,,,,,,,,,,,,,,20. I don't feel upset.,,,,,,,,,,4,return,3.548,0,19,19,19,1,,,,,,,,,,,,,,,,,,,,,,,,,,,,,,,,,,,,,,,,,,,,,,,,,,,,,,,,,,,,,,,,,,,,,,,,,,,,,,,,,,,,,,,,,,,,,,,,,,,
,,11,001,2023-05-04_10h03.28.821,Experiment_Tuerk,2022.2.4,Win32,60.38647343,,,,,,,,,,,,,,,,,,,,,,,,,,,,,,,,,,,,,,,,,,,,,,21. I feel steady.,,,,,,,,,,4,return,15.204,0,20,20,20,1,,,,,,,,,,,,,,,,,,,,,,,,,,,,,,,,,,,,,,,,,,,,,,,,,,,,,,,,,,,,,,,,,,,,,,,,,,,,,,,,,,,,,,,,,,,,,,,,,,,
,,11,001,2023-05-04_10h03.28.821,Experiment_Tuerk,2022.2.4,Win32,60.38647343,,,,,,,,,,,,,,,,,,,,,,,,,,,,,,,,,,,,,,,,,,,,,,22. I feel pleasant.,,,,,,,,,,4,return,2.482,0,21,21,21,1,,,,,,,,,,,,,,,,,,,,,,,,,,,,,,,,,,,,,,,,,,,,,,,,,,,,,,,,,,,,,,,,,,,,,,,,,,,,,,,,,,,,,,,,,,,,,,,,,,,
,,11,001,2023-05-04_10h03.28.821,Experiment_Tuerk,2022.2.4,Win32,60.38647343,,,,,,,,,,,,,,,,,,,,,,,,,,,,,,,,,,,,,,,,,,,,,,21. I feel pleasant.,,,,,,,,,,,,,,,,,,space,11.075,4,return,3.218,0,0,0,0,1,,,,,,,,,,,,,,,,,,,,,,,,,,,,,,,,,,,,,,,,,,,,,,,,,,,,,,,,,,,,,,,,,,,,,,,,,,,,,,,,,,,,,,,,,
,,11,001,2023-05-04_10h03.28.821,Experiment_Tuerk,2022.2.4,Win32,60.38647343,,,,,,,,,,,,,,,,,,,,,,,,,,,,,,,,,,,,,,,,,,,,,,22. I feel nervous and restless.,,,,,,,,,,,,,,,,,,,,2,return,4.242,0,1,1,1,1,,,,,,,,,,,,,,,,,,,,,,,,,,,,,,,,,,,,,,,,,,,,,,,,,,,,,,,,,,,,,,,,,,,,,,,,,,,,,,,,,,,,,,,,,
,,11,001,2023-05-04_10h03.28.821,Experiment_Tuerk,2022.2.4,Win32,60.38647343,,,,,,,,,,,,,,,,,,,,,,,,,,,,,,,,,,,,,,,,,,,,,,23. I feel satisfied with myself.,,,,,,,,,,,,,,,,,,,,3,return,3.18,0,2,2,2,1,,,,,,,,,,,,,,,,,,,,,,,,,,,,,,,,,,,,,,,,,,,,,,,,,,,,,,,,,,,,,,,,,,,,,,,,,,,,,,,,,,,,,,,,,
,,11,001,2023-05-04_10h03.28.821,Experiment_Tuerk,2022.2.4,Win32,60.38647343,,,,,,,,,,,,,,,,,,,,,,,,,,,,,,,,,,,,,,,,,,,,,,24. I wish I could be as happy as others seem to be.,,,,,,,,,,,,,,,,,,,,2,return,4.502,0,3,3,3,1,,,,,,,,,,,,,,,,,,,,,,,,,,,,,,,,,,,,,,,,,,,,,,,,,,,,,,,,,,,,,,,,,,,,,,,,,,,,,,,,,,,,,,,,,
,,11,001,2023-05-04_10h03.28.821,Experiment_Tuerk,2022.2.4,Win32,60.38647343,,,,,,,,,,,,,,,,,,,,,,,,,,,,,,,,,,,,,,,,,,,,,,25. I feel like a failure.,,,,,,,,,,,,,,,,,,,,1,return,2.939,0,4,4,4,1,,,,,,,,,,,,,,,,,,,,,,,,,,,,,,,,,,,,,,,,,,,,,,,,,,,,,,,,,,,,,,,,,,,,,,,,,,,,,,,,,,,,,,,,,
,,11,001,2023-05-04_10h03.28.821,Experiment_Tuerk,2022.2.4,Win32,60.38647343,,,,,,,,,,,,,,,,,,,,,,,,,,,,,,,,,,,,,,,,,,,,,,26. I feel rested.,,,,,,,,,,,,,,,,,,,,3,return,2.525,0,5,5,5,1,,,,,,,,,,,,,,,,,,,,,,,,,,,,,,,,,,,,,,,,,,,,,,,,,,,,,,,,,,,,,,,,,,,,,,,,,,,,,,,,,,,,,,,,,
,,11,001,2023-05-04_10h03.28.821,Experiment_Tuerk,2022.2.4,Win32,60.38647343,,,,,,,,,,,,,,,,,,,,,,,,,,,,,,,,,,,,,,,,,,,,,,"27. I am ""calm, cool, and collected"".",,,,,,,,,,,,,,,,,,,,3,return,2.89,0,6,6,6,1,,,,,,,,,,,,,,,,,,,,,,,,,,,,,,,,,,,,,,,,,,,,,,,,,,,,,,,,,,,,,,,,,,,,,,,,,,,,,,,,,,,,,,,,,
,,11,001,2023-05-04_10h03.28.821,Experiment_Tuerk,2022.2.4,Win32,60.38647343,,,,,,,,,,,,,,,,,,,,,,,,,,,,,,,,,,,,,,,,,,,,,,28. I feel that difficulties are piling up so that I cannot overcome them.,,,,,,,,,,,,,,,,,,,,2,return,5.227,0,7,7,7,1,,,,,,,,,,,,,,,,,,,,,,,,,,,,,,,,,,,,,,,,,,,,,,,,,,,,,,,,,,,,,,,,,,,,,,,,,,,,,,,,,,,,,,,,,
,,11,001,2023-05-04_10h03.28.821,Experiment_Tuerk,2022.2.4,Win32,60.38647343,,,,,,,,,,,,,,,,,,,,,,,,,,,,,,,,,,,,,,,,,,,,,,"29. If you are still paying attention to the test, please press the number four.",,,,,,,,,,,,,,,,,,,,4,return,5.676,0,8,8,8,1,,,,,,,,,,,,,,,,,,,,,,,,,,,,,,,,,,,,,,,,,,,,,,,,,,,,,,,,,,,,,,,,,,,,,,,,,,,,,,,,,,,,,,,,,
,,11,001,2023-05-04_10h03.28.821,Experiment_Tuerk,2022.2.4,Win32,60.38647343,,,,,,,,,,,,,,,,,,,,,,,,,,,,,,,,,,,,,,,,,,,,,,30. I worry too much over something that really doesn't matter.,,,,,,,,,,,,,,,,,,,,2,return,5.44,0,9,9,9,1,,,,,,,,,,,,,,,,,,,,,,,,,,,,,,,,,,,,,,,,,,,,,,,,,,,,,,,,,,,,,,,,,,,,,,,,,,,,,,,,,,,,,,,,,
,,11,001,2023-05-04_10h03.28.821,Experiment_Tuerk,2022.2.4,Win32,60.38647343,,,,,,,,,,,,,,,,,,,,,,,,,,,,,,,,,,,,,,,,,,,,,,31. I am happy.,,,,,,,,,,,,,,,,,,,,3,return,4.745,0,10,10,10,1,,,,,,,,,,,,,,,,,,,,,,,,,,,,,,,,,,,,,,,,,,,,,,,,,,,,,,,,,,,,,,,,,,,,,,,,,,,,,,,,,,,,,,,,,
,,11,001,2023-05-04_10h03.28.821,Experiment_Tuerk,2022.2.4,Win32,60.38647343,,,,,,,,,,,,,,,,,,,,,,,,,,,,,,,,,,,,,,,,,,,,,,32. I have disturbing thoughts.,,,,,,,,,,,,,,,,,,,,2,return,3.769,0,11,11,11,1,,,,,,,,,,,,,,,,,,,,,,,,,,,,,,,,,,,,,,,,,,,,,,,,,,,,,,,,,,,,,,,,,,,,,,,,,,,,,,,,,,,,,,,,,
,,11,001,2023-05-04_10h03.28.821,Experiment_Tuerk,2022.2.4,Win32,60.38647343,,,,,,,,,,,,,,,,,,,,,,,,,,,,,,,,,,,,,,,,,,,,,,33. I lack self-confidence.,,,,,,,,,,,,,,,,,,,,2,return,3.734,0,12,12,12,1,,,,,,,,,,,,,,,,,,,,,,,,,,,,,,,,,,,,,,,,,,,,,,,,,,,,,,,,,,,,,,,,,,,,,,,,,,,,,,,,,,,,,,,,,
,,11,001,2023-05-04_10h03.28.821,Experiment_Tuerk,2022.2.4,Win32,60.38647343,,,,,,,,,,,,,,,,,,,,,,,,,,,,,,,,,,,,,,,,,,,,,,34. I feel secure.,,,,,,,,,,,,,,,,,,,,4,return,2.781,0,13,13,13,1,,,,,,,,,,,,,,,,,,,,,,,,,,,,,,,,,,,,,,,,,,,,,,,,,,,,,,,,,,,,,,,,,,,,,,,,,,,,,,,,,,,,,,,,,
,,11,001,2023-05-04_10h03.28.821,Experiment_Tuerk,2022.2.4,Win32,60.38647343,,,,,,,,,,,,,,,,,,,,,,,,,,,,,,,,,,,,,,,,,,,,,,35. I make decisions easily.,,,,,,,,,,,,,,,,,,,,3,return,2.491,0,14,14,14,1,,,,,,,,,,,,,,,,,,,,,,,,,,,,,,,,,,,,,,,,,,,,,,,,,,,,,,,,,,,,,,,,,,,,,,,,,,,,,,,,,,,,,,,,,
,,11,001,2023-05-04_10h03.28.821,Experiment_Tuerk,2022.2.4,Win32,60.38647343,,,,,,,,,,,,,,,,,,,,,,,,,,,,,,,,,,,,,,,,,,,,,,36. I feel inadequate.,,,,,,,,,,,,,,,,,,,,1,return,4.791,0,15,15,15,1,,,,,,,,,,,,,,,,,,,,,,,,,,,,,,,,,,,,,,,,,,,,,,,,,,,,,,,,,,,,,,,,,,,,,,,,,,,,,,,,,,,,,,,,,
,,11,001,2023-05-04_10h03.28.821,Experiment_Tuerk,2022.2.4,Win32,60.38647343,,,,,,,,,,,,,,,,,,,,,,,,,,,,,,,,,,,,,,,,,,,,,,37. I don't feel nervous.,,,,,,,,,,,,,,,,,,,,3,return,6.272,0,16,16,16,1,,,,,,,,,,,,,,,,,,,,,,,,,,,,,,,,,,,,,,,,,,,,,,,,,,,,,,,,,,,,,,,,,,,,,,,,,,,,,,,,,,,,,,,,,
,,11,001,2023-05-04_10h03.28.821,Experiment_Tuerk,2022.2.4,Win32,60.38647343,,,,,,,,,,,,,,,,,,,,,,,,,,,,,,,,,,,,,,,,,,,,,,38. I am content.,,,,,,,,,,,,,,,,,,,,3,return,3.805,0,17,17,17,1,,,,,,,,,,,,,,,,,,,,,,,,,,,,,,,,,,,,,,,,,,,,,,,,,,,,,,,,,,,,,,,,,,,,,,,,,,,,,,,,,,,,,,,,,
,,11,001,2023-05-04_10h03.28.821,Experiment_Tuerk,2022.2.4,Win32,60.38647343,,,,,,,,,,,,,,,,,,,,,,,,,,,,,,,,,,,,,,,,,,,,,,39. Some unimportant thought runs through my mind and bothers me.,,,,,,,,,,,,,,,,,,,,2,return,5.13,0,18,18,18,1,,,,,,,,,,,,,,,,,,,,,,,,,,,,,,,,,,,,,,,,,,,,,,,,,,,,,,,,,,,,,,,,,,,,,,,,,,,,,,,,,,,,,,,,,
,,11,001,2023-05-04_10h03.28.821,Experiment_Tuerk,2022.2.4,Win32,60.38647343,,,,,,,,,,,,,,,,,,,,,,,,,,,,,,,,,,,,,,,,,,,,,,40. I take disappointments so keenly that I can't put them out of my mind.,,,,,,,,,,,,,,,,,,,,2,return,5.739,0,19,19,19,1,,,,,,,,,,,,,,,,,,,,,,,,,,,,,,,,,,,,,,,,,,,,,,,,,,,,,,,,,,,,,,,,,,,,,,,,,,,,,,,,,,,,,,,,,
,,11,001,2023-05-04_10h03.28.821,Experiment_Tuerk,2022.2.4,Win32,60.38647343,,,,,,,,,,,,,,,,,,,,,,,,,,,,,,,,,,,,,,,,,,,,,,41. I am a steady person.,,,,,,,,,,,,,,,,,,,,4,return,3.109,0,20,20,20,1,,,,,,,,,,,,,,,,,,,,,,,,,,,,,,,,,,,,,,,,,,,,,,,,,,,,,,,,,,,,,,,,,,,,,,,,,,,,,,,,,,,,,,,,,
,,11,001,2023-05-04_10h03.28.821,Experiment_Tuerk,2022.2.4,Win32,60.38647343,,,,,,,,,,,,,,,,,,,,,,,,,,,,,,,,,,,,,,,,,,,,,,42. I get in a state of tension or turmoil as I think over my recent concerns and interests.,,,,,,,,,,,,,,,,,,,,2,return,6.026,0,21,21,21,1,,,,,,,,,,,,,,,,,,,,,,,,,,,,,,,,,,,,,,,,,,,,,,,,,,,,,,,,,,,,,,,,,,,,,,,,,,,,,,,,,,,,,,,,,
,,11,001,2023-05-04_10h03.28.821,Experiment_Tuerk,2022.2.4,Win32,60.38647343,,,,,,,,,,,,,,,,,,,,,,,,,,,,,,,,,,,,,,,,,,,,,,,,,,,,,,,,,,,,,,,,,,,,,,,,,,0,0,0,0,1,,,,,,,,,,,,,,,,,,,,,,,,,,,,,,,,,,,,,,,,,,,,,,,,,,,,,,,,,,,,,,,,,,,,,,,,,,,,,,,,,,,,
,,11,001,2023-05-04_10h03.28.821,Experiment_Tuerk,2022.2.4,Win32,60.38647343,,,,,,,,,,,,,,,,,,,,,,,,,0,2,2,3,1,0,0,0,1,,,,,,,,,,,,,,,,,,,,,,,,,,,,,,,,,,,,,,,,,,,,,,,,,,,,,,,,,,,,,,,,,,,,,,,,,,,,,,,,,,,,,,,,,,,,,,,,,,,,,,,,,,,,,,,,,,,,,,,,,,,,,,,,,
,,11,001,2023-05-04_10h03.28.821,Experiment_Tuerk,2022.2.4,Win32,60.38647343,,,,,,,,,,,,,,,,,,,,,,,,,,,,,,,,,,,,,,,,,,,,,,,,,,,,,,,,,,,,,,,,,,,,,,,,,,,,,,,space,38.058,space,17.163,0,16.371,0,0,0,0,1,1. Sadness,0-I do not feel sad.,1-I feel sad much of the time.,2-I am sad all the time.,3-I am so sad or unhappy that I can't stand it.,,,,,,,,,,,,,,,,,,,,,,,,,,,,,,,,,,,,,,,,,,,,,,,,,,,,,,,,,,,,,,,,,,,,
,,11,001,2023-05-04_10h03.28.821,Experiment_Tuerk,2022.2.4,Win32,60.38647343,,,,,,,,,,,,,,,,,,,,,,,,,,,,,,,,,,,,,,,,,,,,,,,,,,,,,,,,,,,,,,,,,,,,,,,,,,,,,,,,,,,1,8.921,0,1,1,1,1,2. Pessimism,0-I am not  discouraged about my future.,1-I feel more discouraged about my future than I used to.,2-I do not expect things to work out for me.,3-I feel my future is hopeless and will only get worse.,,,,,,,,,,,,,,,,,,,,,,,,,,,,,,,,,,,,,,,,,,,,,,,,,,,,,,,,,,,,,,,,,,,,
,,11,001,2023-05-04_10h03.28.821,Experiment_Tuerk,2022.2.4,Win32,60.38647343,,,,,,,,,,,,,,,,,,,,,,,,,,,,,,,,,,,,,,,,,,,,,,,,,,,,,,,,,,,,,,,,,,,,,,,,,,,,,,,,,,,0,12.383,0,2,2,2,1,3. Past failure,0-I do not feel like a failure.,1-I have failed more than I should have.,"2-As I look back, I see a lot of failures.",3-I feel I am a total failure as a person.,,,,,,,,,,,,,,,,,,,,,,,,,,,,,,,,,,,,,,,,,,,,,,,,,,,,,,,,,,,,,,,,,,,,
,,11,001,2023-05-04_10h03.28.821,Experiment_Tuerk,2022.2.4,Win32,60.38647343,,,,,,,,,,,,,,,,,,,,,,,,,,,,,,,,,,,,,,,,,,,,,,,,,,,,,,,,,,,,,,,,,,,,,,,,,,,,,,,,,,,1,12.95,0,3,3,3,1,4. Loss of Pleasure,0-I get as much pleasure as I ever did from the things I enjoy.,1-I don't enjoy things as much as I used to.,2-I get very little pleasure from the things I used to enjoy.,3-I can't get any pleasure from the things I used to enjoy.,,,,,,,,,,,,,,,,,,,,,,,,,,,,,,,,,,,,,,,,,,,,,,,,,,,,,,,,,,,,,,,,,,,,
,,11,001,2023-05-04_10h03.28.821,Experiment_Tuerk,2022.2.4,Win32,60.38647343,,,,,,,,,,,,,,,,,,,,,,,,,,,,,,,,,,,,,,,,,,,,,,,,,,,,,,,,,,,,,,,,,,,,,,,,,,,,,,,,,,,0,11.449,0,4,4,4,1,5. Guilty feelings,0-I don't feel particularly guilty.,1-I feel guilty over many things I have done or should have done.,2-I feel quite guilty most of the time.,3-I feel guilty all of the time.,,,,,,,,,,,,,,,,,,,,,,,,,,,,,,,,,,,,,,,,,,,,,,,,,,,,,,,,,,,,,,,,,,,,
,,11,001,2023-05-04_10h03.28.821,Experiment_Tuerk,2022.2.4,Win32,60.38647343,,,,,,,,,,,,,,,,,,,,,,,,,,,,,,,,,,,,,,,,,,,,,,,,,,,,,,,,,,,,,,,,,,,,,,,,,,,,,,,,,,,0,7.101,0,5,5,5,1,6. Punishment feelings,0-I don't feel I am being punished.,1-I feel I may be punished.,2-I expect to be punished.,3-I feel I am being punished.,,,,,,,,,,,,,,,,,,,,,,,,,,,,,,,,,,,,,,,,,,,,,,,,,,,,,,,,,,,,,,,,,,,,
,,11,001,2023-05-04_10h03.28.821,Experiment_Tuerk,2022.2.4,Win32,60.38647343,,,,,,,,,,,,,,,,,,,,,,,,,,,,,,,,,,,,,,,,,,,,,,,,,,,,,,,,,,,,,,,,,,,,,,,,,,,,,,,,,,,0,5.718,0,6,6,6,1,7. Self-dislike,0-I feel the same about myself as ever.,1-I have lost confidence in myself.,2-I am disappointed in myself.,3-I dislike myself.,,,,,,,,,,,,,,,,,,,,,,,,,,,,,,,,,,,,,,,,,,,,,,,,,,,,,,,,,,,,,,,,,,,,
,,11,001,2023-05-04_10h03.28.821,Experiment_Tuerk,2022.2.4,Win32,60.38647343,,,,,,,,,,,,,,,,,,,,,,,,,,,,,,,,,,,,,,,,,,,,,,,,,,,,,,,,,,,,,,,,,,,,,,,,,,,,,,,,,,,0,10.329,0,7,7,7,1,8. Self-criticalness,0-I don't criticize or blame myself more than usual.,1-I am more critical of myself than I used to be.,2-I criticize myself for all of my faults.,3-I blame myself for everything bad that happens.,,,,,,,,,,,,,,,,,,,,,,,,,,,,,,,,,,,,,,,,,,,,,,,,,,,,,,,,,,,,,,,,,,,,
,,11,001,2023-05-04_10h03.28.821,Experiment_Tuerk,2022.2.4,Win32,60.38647343,,,,,,,,,,,,,,,,,,,,,,,,,,,,,,,,,,,,,,,,,,,,,,,,,,,,,,,,,,,,,,,,,,,,,,,,,,,,,,,,,,,0,3.537,0,8,8,8,1,9. Suicidal thoughts or wishes,0-I don't have any thoughts of killing myself.,"1-I have thoughts of killing myself, but I would not carry them out.",2-I would like to kill myself.,3-I would kill myself if I had the chance.,,,,,,,,,,,,,,,,,,,,,,,,,,,,,,,,,,,,,,,,,,,,,,,,,,,,,,,,,,,,,,,,,,,,
,,11,001,2023-05-04_10h03.28.821,Experiment_Tuerk,2022.2.4,Win32,60.38647343,,,,,,,,,,,,,,,,,,,,,,,,,,,,,,,,,,,,,,,,,,,,,,,,,,,,,,,,,,,,,,,,,,,,,,,,,,,,,,,,,,,0,6.038,0,9,9,9,1,10. Crying,0-I don't cry anymore than I used to.,1-I cry more than I used to.,2-I cry over every little thing.,"3-I feel like crying, but I can't.",,,,,,,,,,,,,,,,,,,,,,,,,,,,,,,,,,,,,,,,,,,,,,,,,,,,,,,,,,,,,,,,,,,,
,,11,001,2023-05-04_10h03.28.821,Experiment_Tuerk,2022.2.4,Win32,60.38647343,,,,,,,,,,,,,,,,,,,,,,,,,,,,,,,,,,,,,,,,,,,,,,,,,,,,,,,,,,,,,,,,,,,,,,,,,,,,,,,,,,,0,7.494,0,10,10,10,1,11. Agitation,0-I am no more restless or wound up than usual.,1-I feel more restless or wound up than usual.,"2-I am so restless or agitated, it's hard to stay still.",3-I am so restless or agitated that I have to keep moving or doing something.,,,,,,,,,,,,,,,,,,,,,,,,,,,,,,,,,,,,,,,,,,,,,,,,,,,,,,,,,,,,,,,,,,,,
,,11,001,2023-05-04_10h03.28.821,Experiment_Tuerk,2022.2.4,Win32,60.38647343,,,,,,,,,,,,,,,,,,,,,,,,,,,,,,,,,,,,,,,,,,,,,,,,,,,,,,,,,,,,,,,,,,,,,,,,,,,,,,,,,,,1,11.486,0,11,11,11,1,12. Loss of Interest,0-I have not lost interest in other people or activities.,1-I am less interested in other people or things than before.,2-I have lost most of my interest in other people or things.,3-It's hard to get interested in anything.,,,,,,,,,,,,,,,,,,,,,,,,,,,,,,,,,,,,,,,,,,,,,,,,,,,,,,,,,,,,,,,,,,,,
,,11,001,2023-05-04_10h03.28.821,Experiment_Tuerk,2022.2.4,Win32,60.38647343,,,,,,,,,,,,,,,,,,,,,,,,,,,,,,,,,,,,,,,,,,,,,,,,,,,,,,,,,,,,,,,,,,,,,,,,,,,,,,,,,,,0,4.501,0,12,12,12,1,13. Indecisiveness,0-I make decisions about as well as ever.,1-I find it more difficult to make decisions than usual.,2-I have much greater difficulty in making decisions than I used to.,3-I have trouble making any decisions.,,,,,,,,,,,,,,,,,,,,,,,,,,,,,,,,,,,,,,,,,,,,,,,,,,,,,,,,,,,,,,,,,,,,
,,11,001,2023-05-04_10h03.28.821,Experiment_Tuerk,2022.2.4,Win32,60.38647343,,,,,,,,,,,,,,,,,,,,,,,,,,,,,,,,,,,,,,,,,,,,,,,,,,,,,,,,,,,,,,,,,,,,,,,,,,,,,,,,,,,0,5.069,0,13,13,13,1,14. Worthlessness,0-I do not feel I am worthless.,1-I don't consider myself as worthwhile and useful as I used to.,2-I feel more worthless as compared to others.,3-I feel utterly worthless.,,,,,,,,,,,,,,,,,,,,,,,,,,,,,,,,,,,,,,,,,,,,,,,,,,,,,,,,,,,,,,,,,,,,
,,11,001,2023-05-04_10h03.28.821,Experiment_Tuerk,2022.2.4,Win32,60.38647343,,,,,,,,,,,,,,,,,,,,,,,,,,,,,,,,,,,,,,,,,,,,,,,,,,,,,,,,,,,,,,,,,,,,,,,,,,,,,,,,,,,0,4.454,0,14,14,14,1,15. Loss of energy,0-I have as much energy as ever.,1-I have less energy than I used to have.,2-I don't have enough energy to do very much.,3-I don't have enough energy to do anything.,,,,,,,,,,,,,,,,,,,,,,,,,,,,,,,,,,,,,,,,,,,,,,,,,,,,,,,,,,,,,,,,,,,,
,,11,001,2023-05-04_10h03.28.821,Experiment_Tuerk,2022.2.4,Win32,60.38647343,,,,,,,,,,,,,,,,,,,,,,,,,,,,,,,,,,,,,,,,,,,,,,,,,,,,,,,,,,,,,,,,,,,,,,,,,,,,,,,,,,,0,6.241,0,15,15,15,1,16. Changes in sleeping pattern,0-I have not experienced any change in my sleeping.,"1a-I sleep somewhat more than usual.
1b-I sleep somewhat less than usual.","2a-I sleep a lot more than usual.
2b-I sleep a lot less than usual.","3a-I sleep most of the day.
3b-I wake up 1-2 hours early and can't get back to sleep.",,,,,,,,,,,,,,,,,,,,,,,,,,,,,,,,,,,,,,,,,,,,,,,,,,,,,,,,,,,,,,,,,,,,
,,11,001,2023-05-04_10h03.28.821,Experiment_Tuerk,2022.2.4,Win32,60.38647343,,,,,,,,,,,,,,,,,,,,,,,,,,,,,,,,,,,,,,,,,,,,,,,,,,,,,,,,,,,,,,,,,,,,,,,,,,,,,,,,,,,0,6.734,0,16,16,16,1,17. Irritability,0-I am not more irritable than usual.,1-I am more irritable than usual.,2-I am much more irritable than usual.,3-I am irritable all the time.,,,,,,,,,,,,,,,,,,,,,,,,,,,,,,,,,,,,,,,,,,,,,,,,,,,,,,,,,,,,,,,,,,,,
,,11,001,2023-05-04_10h03.28.821,Experiment_Tuerk,2022.2.4,Win32,60.38647343,,,,,,,,,,,,,,,,,,,,,,,,,,,,,,,,,,,,,,,,,,,,,,,,,,,,,,,,,,,,,,,,,,,,,,,,,,,,,,,,,,,1,20.565,0,17,17,17,1,18. Changes in Appetite,0-I have not experienced any change in my appetite.,"1a-My appetite is somewhat less than usual.
1b-My appetite is somewhat greater than usual.","2a-My appetite is much less than before.
2b-My appetite is much greater than usual.","3a-I have no appetite at all.
3b-I crave food all the time.",,,,,,,,,,,,,,,,,,,,,,,,,,,,,,,,,,,,,,,,,,,,,,,,,,,,,,,,,,,,,,,,,,,,
,,11,001,2023-05-04_10h03.28.821,Experiment_Tuerk,2022.2.4,Win32,60.38647343,,,,,,,,,,,,,,,,,,,,,,,,,,,,,,,,,,,,,,,,,,,,,,,,,,,,,,,,,,,,,,,,,,,,,,,,,,,,,,,,,,,0,8.844,0,18,18,18,1,19. Concentration difficulty,0-I can concentrate as well as ever.,1-I can't concentrate as well as usual.,2-It's hard to keep my mind on anything for very long.,3-I find I can't concentrate on anything.,,,,,,,,,,,,,,,,,,,,,,,,,,,,,,,,,,,,,,,,,,,,,,,,,,,,,,,,,,,,,,,,,,,,
,,11,001,2023-05-04_10h03.28.821,Experiment_Tuerk,2022.2.4,Win32,60.38647343,,,,,,,,,,,,,,,,,,,,,,,,,,,,,,,,,,,,,,,,,,,,,,,,,,,,,,,,,,,,,,,,,,,,,,,,,,,,,,,,,,,0,6.448,0,19,19,19,1,20. Tiredness or fatigue,0-I am no more tired or fatigued than usual.,1-I get more tired or fatigued more easily than usual.,2-I am too tired or fatigued to do a lot of the things I used to do.,3-I am too tired or fatigued to do most of the things I used to do.,,,,,,,,,,,,,,,,,,,,,,,,,,,,,,,,,,,,,,,,,,,,,,,,,,,,,,,,,,,,,,,,,,,,
,,11,001,2023-05-04_10h03.28.821,Experiment_Tuerk,2022.2.4,Win32,60.38647343,,,,,,,,,,,,,,,,,,,,,,,,,,,,,,,,,,,,,,,,,,,,,,,,,,,,,,,,,,,,,,,,,,,,,,,,,,,,,,,,,,,0,8.715,0,20,20,20,1,21. Loss of interest in sex,0-I have not noticed any recent change in my interest in sex.,1-I am less interested in sex than I used to be.,2-I am much less interested in sex now.,3-I have lost interest in sex completely.,,,,,,,,,,,,,,,,,,,,,,,,,,,,,,,,,,,,,,,,,,,,,,,,,,,,,,,,,,,,,,,,,,,,
,,11,001,2023-05-04_10h03.28.821,Experiment_Tuerk,2022.2.4,Win32,60.38647343,,,,,,,,,,,,,,,,,,,,,,,,,,,,,,,,,,,,,,,,,,,,,,,,,,,,,,,,,,,,,,,,,,,,,,,,,,,,,,,,,,,,,,,,,,,,,,,0,0,0,0,1,,,,,,,,,,,,,,,,,,,,,,,,,,,,,,,,,,,,,,,,,,,,,,,,,,,,,,,,,,,,,,,
,,11,001,2023-05-04_10h03.28.821,Experiment_Tuerk,2022.2.4,Win32,60.38647343,,,,,,,,,,,,,,,,,,,,,,,,,0,3,3,1,1,0,1,0,0,,,,,,,,,,,,,,,,,,,,,,,,,,,,,,,,,,,,,,,,,,,,,,,,,,,,,,,,,,,,,,,,,,,,,,,,,,,,,,,,,,,,,,,,,,,,,,,,,,,,,,,,,,,,,,,,,,,,,,,,,,,,,,,,,
,,11,001,2023-05-04_10h03.28.821,Experiment_Tuerk,2022.2.4,Win32,60.38647343,,,,,,,,,,,,,,,,,,,,,,,,,,,,,,,,,,,,,,,,,,,,,,,,,,,,,,,,,,,,,,,,,,,,,,,,,,,,,,,,,,,,,,,,,,,,,,,,,,,,,,,,,,,,,,,,,,,,,,,,,,,,,,,,,,,,,,,,,,,,,,,,,,,,,,,,,,,,,,,,,,
,,11,001,2023-05-04_10h03.28.821,Experiment_Tuerk,2022.2.4,Win32,60.38647343,,,,,,,,,,,,,,,,,,,,,,,,,,,,,,,,,,,,,,,,,,,,,,,,,,,,,,,,,,,,,,,,,,,,,,,,,,,,,,,,,,,,,,,,,,,,,,,,,,,,space,45.473,,,,,,,,,,,,,,,,,,,,,,,,,,,,,,,,,,,,,,,,,,,,,,,,,,,,,,,,,,,,,
,,11,001,2023-05-04_10h03.28.821,Experiment_Tuerk,2022.2.4,Win32,60.38647343,,,,,,,,,,,,,,,,,,,,,,,,,,,,,,,,,,,,,,,,,,,,,,,,,,,,,,,,,,,,,,,,,,,,,,,,,,,,,,,,,,,,,,,,,,,,,,,,,,,,,,space,18.93,,,,,,,,,,,,,,,,,,,,,,,,,,,,,,,,,,,,,,,,,,,,,,,,,,,,,,,,,,,
,,11,001,2023-05-04_10h03.28.821,Experiment_Tuerk,2022.2.4,Win32,60.38647343,,,,,,,,,,,,,,,,,,,,,,,,,,,,,,,,,,,,,,,,,,,,,,,,,,,,,,,,,,,,,,,,,,,,,,,,,,,,,,,,,,,,,,,,,,,,,,,,,,,,,,,,space,3.752,,,,,,,,,,,,,,,,,,,,,,,,,,,,,,,,,,,,,,,,,,,,,,,,,,,,,,,,,
,,11,001,2023-05-04_10h03.28.821,Experiment_Tuerk,2022.2.4,Win32,60.38647343,,,,,,,,,,,,,,,,,,,,,,,,,,,,,,,,,,,,,,,,,,,,,,,,,,,,,,,,,,,,,,,,,,,,,,,,,,,,,,,,,,,,,,,,,,,,,,,,,,,,,,,,,,space,14.115,,,,,,,,,,,,,,,,,,,,,,,,,,,,,,,,,,,,,,,,,,,,,,,,,,,,,,,
,,11,001,2023-05-04_10h03.28.821,Experiment_Tuerk,2022.2.4,Win32,60.38647343,,,,,,,,,,,,,,,,,,,,,,,,,,,,,,,,,,,,,,,,,,,,,,,,,,,,,,,,,,,,,,,,,,,,,,,,,,,,,,,,,,,,,,,,,,,,,,,,,,,,,,,,,,,,space,31.632,,,,,,,,,,,,,,,,,,,,,,,,,,,,,,,,,,,,,,,,,,,,,,,,,,,,,
,,11,001,2023-05-04_10h03.28.821,Experiment_Tuerk,2022.2.4,Win32,60.38647343,,,,,,,,,,,,,,,,,,,,,,,,,,,,,,,,,,,,,,,,,,,,,,,,,,,,,,,,,,,,,,,,,,,,,,,,,,,,,,,,,,,,,,,,,,,,,,,,,,,,,,,,,,,,,,space,6.819,,,,,,,,,,,,,,,,,,,,,,,,,,,,,,,,,,,,,,,,,,,,,,,,,,,
,,11,001,2023-05-04_10h03.28.821,Experiment_Tuerk,2022.2.4,Win32,60.38647343,,,,,,,,,,,,,,,,,,,,,,,,,,,,,,,,,,,,,,,,,,,,,,,,,,,,,,,,,,,,,,,,,,,,,,,,,,,,,,,,,,,,,,,,,,,,,,,,,,,,,,,,,,,,,,,,space,36.458,m,1,1.314,,,0,0,0,0,1,1,Practice,Practice_N,ｵ,ｺ,right,loss,m,Stimuli/Practice/Mango.jpg,1,1,neg,B,,,,,,,,,,,,,,,,,,,,,,,,,,
,,11,001,2023-05-04_10h03.28.821,Experiment_Tuerk,2022.2.4,Win32,60.38647343,,,,,,,,,,,,,,,,,,,,,,,,,,,,,,,,,,,,,,,,,,,,,,,,,,,,,,,,,,,,,,,,,,,,,,,,,,,,,,,,,,,,,,,,,,,,,,,,,,,,,,,,,,,,,,,,,,m,1,1.317,,,0,1,1,1,1,2,Practice,Practice_N,ｵ,ｺ,right,nl,m,Stimuli/Practice/PenStand.jpg,2,0,neg,B,,,,,,,,,,,,,,,,,,,,,,,,,,
,,11,001,2023-05-04_10h03.28.821,Experiment_Tuerk,2022.2.4,Win32,60.38647343,,,,,,,,,,,,,,,,,,,,,,,,,,,,,,,,,,,,,,,,,,,,,,,,,,,,,,,,,,,,,,,,,,,,,,,,,,,,,,,,,,,,,,,,,,,,,,,,,,,,,,,,,,,,,,,,,,,0,,,,0,2,2,2,1,3,Practice,Practice_N,ｺ,ｵ,left,loss,m,Stimuli/Practice/Coatrack.jpg,3,1,neg,B,,,,,,,,,,,,,,,,,,,,,,,,,,
,,11,001,2023-05-04_10h03.28.821,Experiment_Tuerk,2022.2.4,Win32,60.38647343,,,,,,,,,,,,,,,,,,,,,,,,,,,,,,,,,,,,,,,,,,,,,,,,,,,,,,,,,,,,,,,,,,,,,,,,,,,,,,,,,,,,,,,,,,,,,,,,,,,,,,,,,,,,,,,,,,c,0,0.7,,,0,3,3,3,1,4,Practice,Practice_N,ｵ,ｺ,right,loss,m,Stimuli/Practice/ChewingGum.jpg,4,1,neg,B,,,,,,,,,,,,,,,,,,,,,,,,,,
,,11,001,2023-05-04_10h03.28.821,Experiment_Tuerk,2022.2.4,Win32,60.38647343,,,,,,,,,,,,,,,,,,,,,,,,,,,,,,,,,,,,,,,,,,,,,,,,,,,,,,,,,,,,,,,,,,,,,,,,,,,,,,,,,,,,,,,,,,,,,,,,,,,,,,,,,,,,,,,,,,c,1,1.327,,,0,4,4,4,1,5,Practice,Practice_N,ｺ,ｵ,right,nl,c,Stimuli/Practice/Gauge.jpg,5,1,neg,B,,,,,,,,,,,,,,,,,,,,,,,,,,
,,11,001,2023-05-04_10h03.28.821,Experiment_Tuerk,2022.2.4,Win32,60.38647343,,,,,,,,,,,,,,,,,,,,,,,,,,,,,,,,,,,,,,,,,,,,,,,,,,,,,,,,,,,,,,,,,,,,,,,,,,,,,,,,,,,,,,,,,,,,,,,,,,,,,,,,,,,,,,,,,,m,0,0.958,,,0,5,5,5,1,6,Practice,Practice_N,ｵ,ｺ,left,loss,c,Stimuli/Practice/Canteen.jpg,6,0,neg,B,,,,,,,,,,,,,,,,,,,,,,,,,,
,,11,001,2023-05-04_10h03.28.821,Experiment_Tuerk,2022.2.4,Win32,60.38647343,,,,,,,,,,,,,,,,,,,,,,,,,,,,,,,,,,,,,,,,,,,,,,,,,,,,,,,,,,,,,,,,,,,,,,,,,,,,,,,,,,,,,,,,,,,,,,,,,,,,,,,,,,,,,,,,,,m,0,1.27,,,0,6,6,6,1,7,Practice,Practice_N,ｺ,ｵ,right,nl,c,Stimuli/Practice/Golf_Bag.jpg,7,1,neg,B,,,,,,,,,,,,,,,,,,,,,,,,,,
,,11,001,2023-05-04_10h03.28.821,Experiment_Tuerk,2022.2.4,Win32,60.38647343,,,,,,,,,,,,,,,,,,,,,,,,,,,,,,,,,,,,,,,,,,,,,,,,,,,,,,,,,,,,,,,,,,,,,,,,,,,,,,,,,,,,,,,,,,,,,,,,,,,,,,,,,,,,,,,,,,,0,,,,0,7,7,7,1,8,Practice,Practice_N,ｺ,ｵ,right,loss,c,Stimuli/Practice/Fork_Fondue.jpg,8,0,neg,B,,,,,,,,,,,,,,,,,,,,,,,,,,
,,11,001,2023-05-04_10h03.28.821,Experiment_Tuerk,2022.2.4,Win32,60.38647343,,,,,,,,,,,,,,,,,,,,,,,,,,,,,,,,,,,,,,,,,,,,,,,,,,,,,,,,,,,,,,,,,,,,,,,,,,,,,,,,,,,,,,,,,,,,,,,,,,,,,,,,,,,,,,,,,,c,0,0.305,,,0,8,8,8,1,9,Practice,Practice_N,ｵ,ｺ,right,loss,m,Stimuli/Practice/Toy_BlocksMultiShape.jpg,9,1,neg,B,,,,,,,,,,,,,,,,,,,,,,,,,,
,,11,001,2023-05-04_10h03.28.821,Experiment_Tuerk,2022.2.4,Win32,60.38647343,,,,,,,,,,,,,,,,,,,,,,,,,,,,,,,,,,,,,,,,,,,,,,,,,,,,,,,,,,,,,,,,,,,,,,,,,,,,,,,,,,,,,,,,,,,,,,,,,,,,,,,,,,,,,,,,,,m,0,1.186,,,0,9,9,9,1,10,Practice,Practice_N,ｺ,ｵ,right,nl,c,Stimuli/Practice/Garbage_GreenBin.jpg,10,1,neg,B,,,,,,,,,,,,,,,,,,,,,,,,,,
,,11,001,2023-05-04_10h03.28.821,Experiment_Tuerk,2022.2.4,Win32,60.38647343,,,,,,,,,,,,,,,,,,,,,,,,,,,,,,,,,,,,,,,,,,,,,,,,,,,,,,,,,,,,,,,,,,,,,,,,,,,,,,,,,,,,,,,,,,,,,,,,,,,,,,,,,,,,,,,,,,c,1,0.851,,,0,10,10,10,1,11,Practice,Practice_N,ｵ,ｺ,left,nl,c,Stimuli/Practice/OnionRed.jpg,11,1,neg,B,,,,,,,,,,,,,,,,,,,,,,,,,,
,,11,001,2023-05-04_10h03.28.821,Experiment_Tuerk,2022.2.4,Win32,60.38647343,,,,,,,,,,,,,,,,,,,,,,,,,,,,,,,,,,,,,,,,,,,,,,,,,,,,,,,,,,,,,,,,,,,,,,,,,,,,,,,,,,,,,,,,,,,,,,,,,,,,,,,,,,,,,,,,,,c,1,0.701,,,0,11,11,11,1,12,Practice,Practice_N,ｵ,ｺ,left,nl,c,Stimuli/Practice/Stovetop.jpg,12,1,neg,B,,,,,,,,,,,,,,,,,,,,,,,,,,
,,11,001,2023-05-04_10h03.28.821,Experiment_Tuerk,2022.2.4,Win32,60.38647343,,,,,,,,,,,,,,,,,,,,,,,,,,,,,,,,,,,,,,,,,,,,,,,,,,,,,,,,,,,,,,,,,,,,,,,,,,,,,,,,,,,,,,,,,,,,,,,,,,,,,,,,,,,,,,,,,,c,1,0.634,,,0,12,12,12,1,13,Practice,Practice_N,ｵ,ｺ,left,nl,c,Stimuli/Practice/LeatherPuncherTool.jpg,13,1,neg,B,,,,,,,,,,,,,,,,,,,,,,,,,,
,,11,001,2023-05-04_10h03.28.821,Experiment_Tuerk,2022.2.4,Win32,60.38647343,,,,,,,,,,,,,,,,,,,,,,,,,,,,,,,,,,,,,,,,,,,,,,,,,,,,,,,,,,,,,,,,,,,,,,,,,,,,,,,,,,,,,,,,,,,,,,,,,,,,,,,,,,,,,,,,,,m,1,0.536,,,0,13,13,13,1,14,Practice,Practice_N,ｺ,ｵ,left,nl,m,Stimuli/Practice/FireAlarm.jpg,14,0,neg,B,,,,,,,,,,,,,,,,,,,,,,,,,,
,,11,001,2023-05-04_10h03.28.821,Experiment_Tuerk,2022.2.4,Win32,60.38647343,,,,,,,,,,,,,,,,,,,,,,,,,,,,,,,,,,,,,,,,,,,,,,,,,,,,,,,,,,,,,,,,,,,,,,,,,,,,,,,,,,,,,,,,,,,,,,,,,,,,,,,,,,,,,,,,,,m,1,0.784,,,0,14,14,14,1,15,Practice,Practice_N,ｵ,ｺ,right,loss,m,Stimuli/Practice/Shoes_Snowboarding.jpg,15,1,neg,B,,,,,,,,,,,,,,,,,,,,,,,,,,
,,11,001,2023-05-04_10h03.28.821,Experiment_Tuerk,2022.2.4,Win32,60.38647343,,,,,,,,,,,,,,,,,,,,,,,,,,,,,,,,,,,,,,,,,,,,,,,,,,,,,,,,,,,,,,,,,,,,,,,,,,,,,,,,,,,,,,,,,,,,,,,,,,,,,,,,,,,,,,,,,,m,1,0.794,,,0,15,15,15,1,16,Practice,Practice_N,ｺ,ｵ,left,nl,m,Stimuli/Practice/CarJack.jpg,16,0,neg,B,,,,,,,,,,,,,,,,,,,,,,,,,,
,,11,001,2023-05-04_10h03.28.821,Experiment_Tuerk,2022.2.4,Win32,60.38647343,,,,,,,,,,,,,,,,,,,,,,,,,,,,,,,,,,,,,,,,,,,,,,,,,,,,,,,,,,,,,,,,,,,,,,,,,,,,,,,,,,,,,,,,,,,,,,,,,,,,,,,,,,,,,,,,,,c,0,0.955,,,0,16,16,16,1,17,Practice,Practice_N,ｵ,ｺ,right,nl,m,Stimuli/Practice/Pen_Calligraphy.jpg,17,0,neg,B,,,,,,,,,,,,,,,,,,,,,,,,,,
,,11,001,2023-05-04_10h03.28.821,Experiment_Tuerk,2022.2.4,Win32,60.38647343,,,,,,,,,,,,,,,,,,,,,,,,,,,,,,,,,,,,,,,,,,,,,,,,,,,,,,,,,,,,,,,,,,,,,,,,,,,,,,,,,,,,,,,,,,,,,,,,,,,,,,,,,,,,,,,,,,m,1,0.649,,,0,17,17,17,1,18,Practice,Practice_N,ｺ,ｵ,left,loss,m,Stimuli/Practice/Container_Tupperware.jpg,18,1,neg,B,,,,,,,,,,,,,,,,,,,,,,,,,,
,,11,001,2023-05-04_10h03.28.821,Experiment_Tuerk,2022.2.4,Win32,60.38647343,,,,,,,,,,,,,,,,,,,,,,,,,,,,,,,,,,,,,,,,,,,,,,,,,,,,,,,,,,,,,,,,,,,,,,,,,,,,,,,,,,,,,,,,,,,,,,,,,,,,,,,,,,,,,,,,,,c,0,1.001,,,0,18,18,18,1,19,Practice,Practice_N,ｺ,ｵ,left,loss,m,Stimuli/Practice/ClothCoaster.jpg,19,1,neg,B,,,,,,,,,,,,,,,,,,,,,,,,,,
,,11,001,2023-05-04_10h03.28.821,Experiment_Tuerk,2022.2.4,Win32,60.38647343,,,,,,,,,,,,,,,,,,,,,,,,,,,,,,,,,,,,,,,,,,,,,,,,,,,,,,,,,,,,,,,,,,,,,,,,,,,,,,,,,,,,,,,,,,,,,,,,,,,,,,,,,,,,,,,,,,m,0,1.188,,,0,19,19,19,1,20,Practice,Practice_N,ｵ,ｺ,left,nl,c,Stimuli/Practice/Kneepad.jpg,20,1,neg,B,,,,,,,,,,,,,,,,,,,,,,,,,,
,,11,001,2023-05-04_10h03.28.821,Experiment_Tuerk,2022.2.4,Win32,60.38647343,,,,,,,,,,,,,,,,,,,,,,,,,,,,,,,,,,,,,,,,,,,,,,,,,,,,,,,,,,,,,,,,,,,,,,,,,,,,,,,,,,,,,,,,,,,,,,,,,,,,,,,,,,,,,,,,,,c,1,0.556,,,0,20,20,20,1,21,Practice,Practice_N,ｺ,ｵ,right,loss,c,Stimuli/Practice/Dill.jpg,21,0,neg,B,,,,,,,,,,,,,,,,,,,,,,,,,,
,,11,001,2023-05-04_10h03.28.821,Experiment_Tuerk,2022.2.4,Win32,60.38647343,,,,,,,,,,,,,,,,,,,,,,,,,,,,,,,,,,,,,,,,,,,,,,,,,,,,,,,,,,,,,,,,,,,,,,,,,,,,,,,,,,,,,,,,,,,,,,,,,,,,,,,,,,,,,,,,,,m,0,1.018,,,0,21,21,21,1,22,Practice,Practice_N,ｵ,ｺ,left,nl,c,Stimuli/Practice/Clock_Radio.jpg,22,1,neg,B,,,,,,,,,,,,,,,,,,,,,,,,,,
,,11,001,2023-05-04_10h03.28.821,Experiment_Tuerk,2022.2.4,Win32,60.38647343,,,,,,,,,,,,,,,,,,,,,,,,,,,,,,,,,,,,,,,,,,,,,,,,,,,,,,,,,,,,,,,,,,,,,,,,,,,,,,,,,,,,,,,,,,,,,,,,,,,,,,,,,,,,,,,,,,m,0,0.435,,,0,22,22,22,1,23,Practice,Practice_N,ｵ,ｺ,left,nl,c,Stimuli/Practice/Pajamas.jpg,23,1,neg,B,,,,,,,,,,,,,,,,,,,,,,,,,,
,,11,001,2023-05-04_10h03.28.821,Experiment_Tuerk,2022.2.4,Win32,60.38647343,,,,,,,,,,,,,,,,,,,,,,,,,,,,,,,,,,,,,,,,,,,,,,,,,,,,,,,,,,,,,,,,,,,,,,,,,,,,,,,,,,,,,,,,,,,,,,,,,,,,,,,,,,,,,,,,,,c,0,0.099,,,0,23,23,23,1,24,Practice,Practice_N,ｵ,ｺ,right,loss,m,Stimuli/Practice/SoapBottle.jpg,24,1,neg,B,,,,,,,,,,,,,,,,,,,,,,,,,,
,,11,001,2023-05-04_10h03.28.821,Experiment_Tuerk,2022.2.4,Win32,60.38647343,,,,,,,,,,,,,,,,,,,,,,,,,,,,,,,,,,,,,,,,,,,,,,,,,,,,,,,,,,,,,,,,,,,,,,,,,,,,,,,,,,,,,,,,,,,,,,,,,,,,,,,,,,,,,,,,,,c,0,0.417,,,0,24,24,24,1,25,Practice,Practice_N,ｺ,ｵ,left,loss,m,Stimuli/Practice/ChessPiece_Bishop.jpg,25,1,neg,B,,,,,,,,,,,,,,,,,,,,,,,,,,
,,11,001,2023-05-04_10h03.28.821,Experiment_Tuerk,2022.2.4,Win32,60.38647343,,,,,,,,,,,,,,,,,,,,,,,,,,,,,,,,,,,,,,,,,,,,,,,,,,,,,,,,,,,,,,,,,,,,,,,,,,,,,,,,,,,,,,,,,,,,,,,,,,,,,,,,,,,,,,,,,,c,0,0.504,,,0,25,25,25,1,26,Practice,Practice_N,ｵ,ｺ,right,loss,m,Stimuli/Practice/ToothbrushHolder.jpg,26,1,neg,B,,,,,,,,,,,,,,,,,,,,,,,,,,
,,11,001,2023-05-04_10h03.28.821,Experiment_Tuerk,2022.2.4,Win32,60.38647343,,,,,,,,,,,,,,,,,,,,,,,,,,,,,,,,,,,,,,,,,,,,,,,,,,,,,,,,,,,,,,,,,,,,,,,,,,,,,,,,,,,,,,,,,,,,,,,,,,,,,,,,,,,,,,,,,,m,1,0.469,,,0,26,26,26,1,27,Practice,Practice_N,ｺ,ｵ,left,loss,m,Stimuli/Practice/BicycleBrake.jpg,27,1,neg,B,,,,,,,,,,,,,,,,,,,,,,,,,,
,,11,001,2023-05-04_10h03.28.821,Experiment_Tuerk,2022.2.4,Win32,60.38647343,,,,,,,,,,,,,,,,,,,,,,,,,,,,,,,,,,,,,,,,,,,,,,,,,,,,,,,,,,,,,,,,,,,,,,,,,,,,,,,,,,,,,,,,,,,,,,,,,,,,,,,,,,,,,,,,,,c,1,1.168,,,0,27,27,27,1,28,Practice,Practice_N,ｺ,ｵ,right,nl,c,Stimuli/Practice/Grill_Electric.jpg,28,1,neg,B,,,,,,,,,,,,,,,,,,,,,,,,,,
,,11,001,2023-05-04_10h03.28.821,Experiment_Tuerk,2022.2.4,Win32,60.38647343,,,,,,,,,,,,,,,,,,,,,,,,,,,,,,,,,,,,,,,,,,,,,,,,,,,,,,,,,,,,,,,,,,,,,,,,,,,,,,,,,,,,,,,,,,,,,,,,,,,,,,,,,,,,,,,,,,m,0,0.52,,,0,28,28,28,1,29,Practice,Practice_N,ｵ,ｺ,left,loss,c,Stimuli/Practice/Heater_Outdoor.jpg,29,0,neg,B,,,,,,,,,,,,,,,,,,,,,,,,,,
,,11,001,2023-05-04_10h03.28.821,Experiment_Tuerk,2022.2.4,Win32,60.38647343,,,,,,,,,,,,,,,,,,,,,,,,,,,,,,,,,,,,,,,,,,,,,,,,,,,,,,,,,,,,,,,,,,,,,,,,,,,,,,,,,,,,,,,,,,,,,,,,,,,,,,,,,,,,,,,,,,c,1,0.676,,,0,29,29,29,1,30,Practice,Practice_N,ｺ,ｵ,right,nl,c,Stimuli/Practice/CrepeMaker.jpg,30,1,neg,B,,,,,,,,,,,,,,,,,,,,,,,,,,
,,11,001,2023-05-04_10h03.28.821,Experiment_Tuerk,2022.2.4,Win32,60.38647343,,,,,,,,,,,,,,,,,,,,,,,,,,,,,,,,,,,,,,,,,,,,,,,,,,,,,,,,,,,,,,,,,,,,,,,,,,,,,,,,,,,,,,,,,,,,,,,,,,,,,,,,,,,,,,,,,,m,1,1.233,,,0,30,30,30,1,31,Practice,Practice_N,ｺ,ｵ,left,loss,m,Stimuli/Practice/BicyclePedal.jpg,31,1,neg,B,,,,,,,,,,,,,,,,,,,,,,,,,,
,,11,001,2023-05-04_10h03.28.821,Experiment_Tuerk,2022.2.4,Win32,60.38647343,,,,,,,,,,,,,,,,,,,,,,,,,,,,,,,,,,,,,,,,,,,,,,,,,,,,,,,,,,,,,,,,,,,,,,,,,,,,,,,,,,,,,,,,,,,,,,,,,,,,,,,,,,,,,,,,,,,0,,space,,0,31,31,31,1,32,Practice,Practice_N,ｺ,ｵ,right,nl,c,Stimuli/Practice/GrillRack.jpg,32,1,neg,B,19.466,,,,,,,,,,,,,,,,,,,,,,,,,
,,11,001,2023-05-04_10h03.28.821,Experiment_Tuerk,2022.2.4,Win32,60.38647343,,,,,,,,,,,,,,,,,,,,,,,,,,,,,,,,,,,,,,,,,,,,,,,,,,,,,,,,,,,,,,,,,,,,,,,,,,,,,,,,,,,,,,,,,,,,,,,,,,,,,,,,,,,,,,,,,,m,1,0.824,,,1,0,32,0,1,1,Practice,Practice_N,ｵ,ｺ,right,loss,m,Stimuli/Practice/Mango.jpg,1,1,neg,B,,,,,,,,,,,,,,,,,,,,,,,,,,
,,11,001,2023-05-04_10h03.28.821,Experiment_Tuerk,2022.2.4,Win32,60.38647343,,,,,,,,,,,,,,,,,,,,,,,,,,,,,,,,,,,,,,,,,,,,,,,,,,,,,,,,,,,,,,,,,,,,,,,,,,,,,,,,,,,,,,,,,,,,,,,,,,,,,,,,,,,,,,,,,,c,0,0.65,,,1,1,33,1,1,2,Practice,Practice_N,ｵ,ｺ,right,nl,m,Stimuli/Practice/PenStand.jpg,2,0,neg,B,,,,,,,,,,,,,,,,,,,,,,,,,,
,,11,001,2023-05-04_10h03.28.821,Experiment_Tuerk,2022.2.4,Win32,60.38647343,,,,,,,,,,,,,,,,,,,,,,,,,,,,,,,,,,,,,,,,,,,,,,,,,,,,,,,,,,,,,,,,,,,,,,,,,,,,,,,,,,,,,,,,,,,,,,,,,,,,,,,,,,,,,,,,,,m,1,0.489,,,1,2,34,2,1,3,Practice,Practice_N,ｺ,ｵ,left,loss,m,Stimuli/Practice/Coatrack.jpg,3,1,neg,B,,,,,,,,,,,,,,,,,,,,,,,,,,
,,11,001,2023-05-04_10h03.28.821,Experiment_Tuerk,2022.2.4,Win32,60.38647343,,,,,,,,,,,,,,,,,,,,,,,,,,,,,,,,,,,,,,,,,,,,,,,,,,,,,,,,,,,,,,,,,,,,,,,,,,,,,,,,,,,,,,,,,,,,,,,,,,,,,,,,,,,,,,,,,,c,0,0.488,,,1,3,35,3,1,4,Practice,Practice_N,ｵ,ｺ,right,loss,m,Stimuli/Practice/ChewingGum.jpg,4,1,neg,B,,,,,,,,,,,,,,,,,,,,,,,,,,
,,11,001,2023-05-04_10h03.28.821,Experiment_Tuerk,2022.2.4,Win32,60.38647343,,,,,,,,,,,,,,,,,,,,,,,,,,,,,,,,,,,,,,,,,,,,,,,,,,,,,,,,,,,,,,,,,,,,,,,,,,,,,,,,,,,,,,,,,,,,,,,,,,,,,,,,,,,,,,,,,,c,1,0.968,,,1,4,36,4,1,5,Practice,Practice_N,ｺ,ｵ,right,nl,c,Stimuli/Practice/Gauge.jpg,5,1,neg,B,,,,,,,,,,,,,,,,,,,,,,,,,,
,,11,001,2023-05-04_10h03.28.821,Experiment_Tuerk,2022.2.4,Win32,60.38647343,,,,,,,,,,,,,,,,,,,,,,,,,,,,,,,,,,,,,,,,,,,,,,,,,,,,,,,,,,,,,,,,,,,,,,,,,,,,,,,,,,,,,,,,,,,,,,,,,,,,,,,,,,,,,,,,,,m,0,0.6,,,1,5,37,5,1,6,Practice,Practice_N,ｵ,ｺ,left,loss,c,Stimuli/Practice/Canteen.jpg,6,0,neg,B,,,,,,,,,,,,,,,,,,,,,,,,,,
,,11,001,2023-05-04_10h03.28.821,Experiment_Tuerk,2022.2.4,Win32,60.38647343,,,,,,,,,,,,,,,,,,,,,,,,,,,,,,,,,,,,,,,,,,,,,,,,,,,,,,,,,,,,,,,,,,,,,,,,,,,,,,,,,,,,,,,,,,,,,,,,,,,,,,,,,,,,,,,,,,c,1,0.782,,,1,6,38,6,1,7,Practice,Practice_N,ｺ,ｵ,right,nl,c,Stimuli/Practice/Golf_Bag.jpg,7,1,neg,B,,,,,,,,,,,,,,,,,,,,,,,,,,
,,11,001,2023-05-04_10h03.28.821,Experiment_Tuerk,2022.2.4,Win32,60.38647343,,,,,,,,,,,,,,,,,,,,,,,,,,,,,,,,,,,,,,,,,,,,,,,,,,,,,,,,,,,,,,,,,,,,,,,,,,,,,,,,,,,,,,,,,,,,,,,,,,,,,,,,,,,,,,,,,,c,1,0.761,,,1,7,39,7,1,8,Practice,Practice_N,ｺ,ｵ,right,loss,c,Stimuli/Practice/Fork_Fondue.jpg,8,0,neg,B,,,,,,,,,,,,,,,,,,,,,,,,,,
,,11,001,2023-05-04_10h03.28.821,Experiment_Tuerk,2022.2.4,Win32,60.38647343,,,,,,,,,,,,,,,,,,,,,,,,,,,,,,,,,,,,,,,,,,,,,,,,,,,,,,,,,,,,,,,,,,,,,,,,,,,,,,,,,,,,,,,,,,,,,,,,,,,,,,,,,,,,,,,,,,m,1,0.968,,,1,8,40,8,1,9,Practice,Practice_N,ｵ,ｺ,right,loss,m,Stimuli/Practice/Toy_BlocksMultiShape.jpg,9,1,neg,B,,,,,,,,,,,,,,,,,,,,,,,,,,
,,11,001,2023-05-04_10h03.28.821,Experiment_Tuerk,2022.2.4,Win32,60.38647343,,,,,,,,,,,,,,,,,,,,,,,,,,,,,,,,,,,,,,,,,,,,,,,,,,,,,,,,,,,,,,,,,,,,,,,,,,,,,,,,,,,,,,,,,,,,,,,,,,,,,,,,,,,,,,,,,,,0,,,,1,9,41,9,1,10,Practice,Practice_N,ｺ,ｵ,right,nl,c,Stimuli/Practice/Garbage_GreenBin.jpg,10,1,neg,B,,,,,,,,,,,,,,,,,,,,,,,,,,
,,11,001,2023-05-04_10h03.28.821,Experiment_Tuerk,2022.2.4,Win32,60.38647343,,,,,,,,,,,,,,,,,,,,,,,,,,,,,,,,,,,,,,,,,,,,,,,,,,,,,,,,,,,,,,,,,,,,,,,,,,,,,,,,,,,,,,,,,,,,,,,,,,,,,,,,,,,,,,,,,,c,1,0.825,,,1,10,42,10,1,11,Practice,Practice_N,ｵ,ｺ,left,nl,c,Stimuli/Practice/OnionRed.jpg,11,1,neg,B,,,,,,,,,,,,,,,,,,,,,,,,,,
,,11,001,2023-05-04_10h03.28.821,Experiment_Tuerk,2022.2.4,Win32,60.38647343,,,,,,,,,,,,,,,,,,,,,,,,,,,,,,,,,,,,,,,,,,,,,,,,,,,,,,,,,,,,,,,,,,,,,,,,,,,,,,,,,,,,,,,,,,,,,,,,,,,,,,,,,,,,,,,,,,m,0,0.561,,,1,11,43,11,1,12,Practice,Practice_N,ｵ,ｺ,left,nl,c,Stimuli/Practice/Stovetop.jpg,12,1,neg,B,,,,,,,,,,,,,,,,,,,,,,,,,,
,,11,001,2023-05-04_10h03.28.821,Experiment_Tuerk,2022.2.4,Win32,60.38647343,,,,,,,,,,,,,,,,,,,,,,,,,,,,,,,,,,,,,,,,,,,,,,,,,,,,,,,,,,,,,,,,,,,,,,,,,,,,,,,,,,,,,,,,,,,,,,,,,,,,,,,,,,,,,,,,,,c,1,0.643,,,1,12,44,12,1,13,Practice,Practice_N,ｵ,ｺ,left,nl,c,Stimuli/Practice/LeatherPuncherTool.jpg,13,1,neg,B,,,,,,,,,,,,,,,,,,,,,,,,,,
,,11,001,2023-05-04_10h03.28.821,Experiment_Tuerk,2022.2.4,Win32,60.38647343,,,,,,,,,,,,,,,,,,,,,,,,,,,,,,,,,,,,,,,,,,,,,,,,,,,,,,,,,,,,,,,,,,,,,,,,,,,,,,,,,,,,,,,,,,,,,,,,,,,,,,,,,,,,,,,,,,m,1,0.424,,,1,13,45,13,1,14,Practice,Practice_N,ｺ,ｵ,left,nl,m,Stimuli/Practice/FireAlarm.jpg,14,0,neg,B,,,,,,,,,,,,,,,,,,,,,,,,,,
,,11,001,2023-05-04_10h03.28.821,Experiment_Tuerk,2022.2.4,Win32,60.38647343,,,,,,,,,,,,,,,,,,,,,,,,,,,,,,,,,,,,,,,,,,,,,,,,,,,,,,,,,,,,,,,,,,,,,,,,,,,,,,,,,,,,,,,,,,,,,,,,,,,,,,,,,,,,,,,,,,m,1,1.117,,,1,14,46,14,1,15,Practice,Practice_N,ｵ,ｺ,right,loss,m,Stimuli/Practice/Shoes_Snowboarding.jpg,15,1,neg,B,,,,,,,,,,,,,,,,,,,,,,,,,,
,,11,001,2023-05-04_10h03.28.821,Experiment_Tuerk,2022.2.4,Win32,60.38647343,,,,,,,,,,,,,,,,,,,,,,,,,,,,,,,,,,,,,,,,,,,,,,,,,,,,,,,,,,,,,,,,,,,,,,,,,,,,,,,,,,,,,,,,,,,,,,,,,,,,,,,,,,,,,,,,,,m,1,0.403,,,1,15,47,15,1,16,Practice,Practice_N,ｺ,ｵ,left,nl,m,Stimuli/Practice/CarJack.jpg,16,0,neg,B,,,,,,,,,,,,,,,,,,,,,,,,,,
,,11,001,2023-05-04_10h03.28.821,Experiment_Tuerk,2022.2.4,Win32,60.38647343,,,,,,,,,,,,,,,,,,,,,,,,,,,,,,,,,,,,,,,,,,,,,,,,,,,,,,,,,,,,,,,,,,,,,,,,,,,,,,,,,,,,,,,,,,,,,,,,,,,,,,,,,,,,,,,,,,c,0,1.023,,,1,16,48,16,1,17,Practice,Practice_N,ｵ,ｺ,right,nl,m,Stimuli/Practice/Pen_Calligraphy.jpg,17,0,neg,B,,,,,,,,,,,,,,,,,,,,,,,,,,
,,11,001,2023-05-04_10h03.28.821,Experiment_Tuerk,2022.2.4,Win32,60.38647343,,,,,,,,,,,,,,,,,,,,,,,,,,,,,,,,,,,,,,,,,,,,,,,,,,,,,,,,,,,,,,,,,,,,,,,,,,,,,,,,,,,,,,,,,,,,,,,,,,,,,,,,,,,,,,,,,,m,1,0.568,,,1,17,49,17,1,18,Practice,Practice_N,ｺ,ｵ,left,loss,m,Stimuli/Practice/Container_Tupperware.jpg,18,1,neg,B,,,,,,,,,,,,,,,,,,,,,,,,,,
,,11,001,2023-05-04_10h03.28.821,Experiment_Tuerk,2022.2.4,Win32,60.38647343,,,,,,,,,,,,,,,,,,,,,,,,,,,,,,,,,,,,,,,,,,,,,,,,,,,,,,,,,,,,,,,,,,,,,,,,,,,,,,,,,,,,,,,,,,,,,,,,,,,,,,,,,,,,,,,,,,c,0,0.653,,,1,18,50,18,1,19,Practice,Practice_N,ｺ,ｵ,left,loss,m,Stimuli/Practice/ClothCoaster.jpg,19,1,neg,B,,,,,,,,,,,,,,,,,,,,,,,,,,
,,11,001,2023-05-04_10h03.28.821,Experiment_Tuerk,2022.2.4,Win32,60.38647343,,,,,,,,,,,,,,,,,,,,,,,,,,,,,,,,,,,,,,,,,,,,,,,,,,,,,,,,,,,,,,,,,,,,,,,,,,,,,,,,,,,,,,,,,,,,,,,,,,,,,,,,,,,,,,,,,,c,1,0.983,,,1,19,51,19,1,20,Practice,Practice_N,ｵ,ｺ,left,nl,c,Stimuli/Practice/Kneepad.jpg,20,1,neg,B,,,,,,,,,,,,,,,,,,,,,,,,,,
,,11,001,2023-05-04_10h03.28.821,Experiment_Tuerk,2022.2.4,Win32,60.38647343,,,,,,,,,,,,,,,,,,,,,,,,,,,,,,,,,,,,,,,,,,,,,,,,,,,,,,,,,,,,,,,,,,,,,,,,,,,,,,,,,,,,,,,,,,,,,,,,,,,,,,,,,,,,,,,,,,m,0,0.473,,,1,20,52,20,1,21,Practice,Practice_N,ｺ,ｵ,right,loss,c,Stimuli/Practice/Dill.jpg,21,0,neg,B,,,,,,,,,,,,,,,,,,,,,,,,,,
,,11,001,2023-05-04_10h03.28.821,Experiment_Tuerk,2022.2.4,Win32,60.38647343,,,,,,,,,,,,,,,,,,,,,,,,,,,,,,,,,,,,,,,,,,,,,,,,,,,,,,,,,,,,,,,,,,,,,,,,,,,,,,,,,,,,,,,,,,,,,,,,,,,,,,,,,,,,,,,,,,c,1,0.535,,,1,21,53,21,1,22,Practice,Practice_N,ｵ,ｺ,left,nl,c,Stimuli/Practice/Clock_Radio.jpg,22,1,neg,B,,,,,,,,,,,,,,,,,,,,,,,,,,
,,11,001,2023-05-04_10h03.28.821,Experiment_Tuerk,2022.2.4,Win32,60.38647343,,,,,,,,,,,,,,,,,,,,,,,,,,,,,,,,,,,,,,,,,,,,,,,,,,,,,,,,,,,,,,,,,,,,,,,,,,,,,,,,,,,,,,,,,,,,,,,,,,,,,,,,,,,,,,,,,,m,0,0.508,,,1,22,54,22,1,23,Practice,Practice_N,ｵ,ｺ,left,nl,c,Stimuli/Practice/Pajamas.jpg,23,1,neg,B,,,,,,,,,,,,,,,,,,,,,,,,,,
,,11,001,2023-05-04_10h03.28.821,Experiment_Tuerk,2022.2.4,Win32,60.38647343,,,,,,,,,,,,,,,,,,,,,,,,,,,,,,,,,,,,,,,,,,,,,,,,,,,,,,,,,,,,,,,,,,,,,,,,,,,,,,,,,,,,,,,,,,,,,,,,,,,,,,,,,,,,,,,,,,m,1,0.384,,,1,23,55,23,1,24,Practice,Practice_N,ｵ,ｺ,right,loss,m,Stimuli/Practice/SoapBottle.jpg,24,1,neg,B,,,,,,,,,,,,,,,,,,,,,,,,,,
,,11,001,2023-05-04_10h03.28.821,Experiment_Tuerk,2022.2.4,Win32,60.38647343,,,,,,,,,,,,,,,,,,,,,,,,,,,,,,,,,,,,,,,,,,,,,,,,,,,,,,,,,,,,,,,,,,,,,,,,,,,,,,,,,,,,,,,,,,,,,,,,,,,,,,,,,,,,,,,,,,c,0,0.484,,,1,24,56,24,1,25,Practice,Practice_N,ｺ,ｵ,left,loss,m,Stimuli/Practice/ChessPiece_Bishop.jpg,25,1,neg,B,,,,,,,,,,,,,,,,,,,,,,,,,,
,,11,001,2023-05-04_10h03.28.821,Experiment_Tuerk,2022.2.4,Win32,60.38647343,,,,,,,,,,,,,,,,,,,,,,,,,,,,,,,,,,,,,,,,,,,,,,,,,,,,,,,,,,,,,,,,,,,,,,,,,,,,,,,,,,,,,,,,,,,,,,,,,,,,,,,,,,,,,,,,,,m,1,0.983,,,1,25,57,25,1,26,Practice,Practice_N,ｵ,ｺ,right,loss,m,Stimuli/Practice/ToothbrushHolder.jpg,26,1,neg,B,,,,,,,,,,,,,,,,,,,,,,,,,,
,,11,001,2023-05-04_10h03.28.821,Experiment_Tuerk,2022.2.4,Win32,60.38647343,,,,,,,,,,,,,,,,,,,,,,,,,,,,,,,,,,,,,,,,,,,,,,,,,,,,,,,,,,,,,,,,,,,,,,,,,,,,,,,,,,,,,,,,,,,,,,,,,,,,,,,,,,,,,,,,,,c,0,0.701,,,1,26,58,26,1,27,Practice,Practice_N,ｺ,ｵ,left,loss,m,Stimuli/Practice/BicycleBrake.jpg,27,1,neg,B,,,,,,,,,,,,,,,,,,,,,,,,,,
,,11,001,2023-05-04_10h03.28.821,Experiment_Tuerk,2022.2.4,Win32,60.38647343,,,,,,,,,,,,,,,,,,,,,,,,,,,,,,,,,,,,,,,,,,,,,,,,,,,,,,,,,,,,,,,,,,,,,,,,,,,,,,,,,,,,,,,,,,,,,,,,,,,,,,,,,,,,,,,,,,m,0,1.1,,,1,27,59,27,1,28,Practice,Practice_N,ｺ,ｵ,right,nl,c,Stimuli/Practice/Grill_Electric.jpg,28,1,neg,B,,,,,,,,,,,,,,,,,,,,,,,,,,
,,11,001,2023-05-04_10h03.28.821,Experiment_Tuerk,2022.2.4,Win32,60.38647343,,,,,,,,,,,,,,,,,,,,,,,,,,,,,,,,,,,,,,,,,,,,,,,,,,,,,,,,,,,,,,,,,,,,,,,,,,,,,,,,,,,,,,,,,,,,,,,,,,,,,,,,,,,,,,,,,,c,1,0.689,,,1,28,60,28,1,29,Practice,Practice_N,ｵ,ｺ,left,loss,c,Stimuli/Practice/Heater_Outdoor.jpg,29,0,neg,B,,,,,,,,,,,,,,,,,,,,,,,,,,
,,11,001,2023-05-04_10h03.28.821,Experiment_Tuerk,2022.2.4,Win32,60.38647343,,,,,,,,,,,,,,,,,,,,,,,,,,,,,,,,,,,,,,,,,,,,,,,,,,,,,,,,,,,,,,,,,,,,,,,,,,,,,,,,,,,,,,,,,,,,,,,,,,,,,,,,,,,,,,,,,,c,1,0.367,,,1,29,61,29,1,30,Practice,Practice_N,ｺ,ｵ,right,nl,c,Stimuli/Practice/CrepeMaker.jpg,30,1,neg,B,,,,,,,,,,,,,,,,,,,,,,,,,,
,,11,001,2023-05-04_10h03.28.821,Experiment_Tuerk,2022.2.4,Win32,60.38647343,,,,,,,,,,,,,,,,,,,,,,,,,,,,,,,,,,,,,,,,,,,,,,,,,,,,,,,,,,,,,,,,,,,,,,,,,,,,,,,,,,,,,,,,,,,,,,,,,,,,,,,,,,,,,,,,,,c,0,0.966,,,1,30,62,30,1,31,Practice,Practice_N,ｺ,ｵ,left,loss,m,Stimuli/Practice/BicyclePedal.jpg,31,1,neg,B,,,,,,,,,,,,,,,,,,,,,,,,,,
,,11,001,2023-05-04_10h03.28.821,Experiment_Tuerk,2022.2.4,Win32,60.38647343,,,,,,,,,,,,,,,,,,,,,,,,,,,,,,,,,,,,,,,,,,,,,,,,,,,,,,,,,,,,,,,,,,,,,,,,,,,,,,,,,,,,,,,,,,,,,,,,,,,,,,,,,,,,,,,,,,m,0,0.991,space,,1,31,63,31,1,32,Practice,Practice_N,ｺ,ｵ,right,nl,c,Stimuli/Practice/GrillRack.jpg,32,1,neg,B,6.624,,,,,,,,,,,,,,,,,,,,,,,,,
,,11,001,2023-05-04_10h03.28.821,Experiment_Tuerk,2022.2.4,Win32,60.38647343,,,,,,,,,,,,,,,,,,,,,,,,,,,,,,,,,,,,,,,,,,,,,,,,,,,,,,,,,,,,,,,,,,,,,,,,,,,,,,,,,,,,,,,,,,,,,,,,,,,,,,,,,,,,,,,,,,c,0,0.65,,,,,,,,1,1,acquisition_P,ｷ,ｲ,right,r,m,Stimuli/Encoding/Horn_French.jpg,1,0,pos,B,,space,41.766,,0,0,0,0,1,,,,,,,,,,,,,,,,,
,,11,001,2023-05-04_10h03.28.821,Experiment_Tuerk,2022.2.4,Win32,60.38647343,,,,,,,,,,,,,,,,,,,,,,,,,,,,,,,,,,,,,,,,,,,,,,,,,,,,,,,,,,,,,,,,,,,,,,,,,,,,,,,,,,,,,,,,,,,,,,,,,,,,,,,,,,,,,,,,,,m,1,0.5,,,,,,,,2,1,acquisition_P,ｲ,ｷ,left,nr,m,Stimuli/Encoding/Abacus.jpg,2,1,pos,B,,,,,0,1,1,1,1,,,,,,,,,,,,,,,,,
,,11,001,2023-05-04_10h03.28.821,Experiment_Tuerk,2022.2.4,Win32,60.38647343,,,,,,,,,,,,,,,,,,,,,,,,,,,,,,,,,,,,,,,,,,,,,,,,,,,,,,,,,,,,,,,,,,,,,,,,,,,,,,,,,,,,,,,,,,,,,,,,,,,,,,,,,,,,,,,,,,m,0,0.8,,,,,,,,3,1,acquisition_P,ｷ,ｲ,left,r,c,Stimuli/Encoding/Cup_Styrofoam.jpg,3,1,pos,B,,,,,0,2,2,2,1,,,,,,,,,,,,,,,,,
,,11,001,2023-05-04_10h03.28.821,Experiment_Tuerk,2022.2.4,Win32,60.38647343,,,,,,,,,,,,,,,,,,,,,,,,,,,,,,,,,,,,,,,,,,,,,,,,,,,,,,,,,,,,,,,,,,,,,,,,,,,,,,,,,,,,,,,,,,,,,,,,,,,,,,,,,,,,,,,,,,m,0,0.609,,,,,,,,4,1,acquisition_P,ｲ,ｷ,right,r,c,Stimuli/Encoding/Dragonfly.jpg,4,1,pos,B,,,,,0,3,3,3,1,,,,,,,,,,,,,,,,,
,,11,001,2023-05-04_10h03.28.821,Experiment_Tuerk,2022.2.4,Win32,60.38647343,,,,,,,,,,,,,,,,,,,,,,,,,,,,,,,,,,,,,,,,,,,,,,,,,,,,,,,,,,,,,,,,,,,,,,,,,,,,,,,,,,,,,,,,,,,,,,,,,,,,,,,,,,,,,,,,,,c,0,0.451,,,,,,,,5,1,acquisition_P,ｲ,ｷ,left,nr,m,Stimuli/Encoding/Boardgame_Checkers.jpg,5,1,pos,B,,,,,0,4,4,4,1,,,,,,,,,,,,,,,,,
,,11,001,2023-05-04_10h03.28.821,Experiment_Tuerk,2022.2.4,Win32,60.38647343,,,,,,,,,,,,,,,,,,,,,,,,,,,,,,,,,,,,,,,,,,,,,,,,,,,,,,,,,,,,,,,,,,,,,,,,,,,,,,,,,,,,,,,,,,,,,,,,,,,,,,,,,,,,,,,,,,c,1,0.684,,,,,,,,6,1,acquisition_P,ｷ,ｲ,left,nr,c,Stimuli/Encoding/Cake_Wedding.jpg,6,0,pos,B,,,,,0,5,5,5,1,,,,,,,,,,,,,,,,,
,,11,001,2023-05-04_10h03.28.821,Experiment_Tuerk,2022.2.4,Win32,60.38647343,,,,,,,,,,,,,,,,,,,,,,,,,,,,,,,,,,,,,,,,,,,,,,,,,,,,,,,,,,,,,,,,,,,,,,,,,,,,,,,,,,,,,,,,,,,,,,,,,,,,,,,,,,,,,,,,,,c,1,0.72,,,,,,,,7,1,acquisition_P,ｲ,ｷ,right,r,c,Stimuli/Encoding/Bicycle_Kids.jpg,7,1,pos,B,,,,,0,6,6,6,1,,,,,,,,,,,,,,,,,
,,11,001,2023-05-04_10h03.28.821,Experiment_Tuerk,2022.2.4,Win32,60.38647343,,,,,,,,,,,,,,,,,,,,,,,,,,,,,,,,,,,,,,,,,,,,,,,,,,,,,,,,,,,,,,,,,,,,,,,,,,,,,,,,,,,,,,,,,,,,,,,,,,,,,,,,,,,,,,,,,,c,1,0.569,,,,,,,,8,1,acquisition_P,ｷ,ｲ,left,r,c,Stimuli/Encoding/Backhoe.jpg,8,1,pos,B,,,,,0,7,7,7,1,,,,,,,,,,,,,,,,,
,,11,001,2023-05-04_10h03.28.821,Experiment_Tuerk,2022.2.4,Win32,60.38647343,,,,,,,,,,,,,,,,,,,,,,,,,,,,,,,,,,,,,,,,,,,,,,,,,,,,,,,,,,,,,,,,,,,,,,,,,,,,,,,,,,,,,,,,,,,,,,,,,,,,,,,,,,,,,,,,,,c,0,0.606,,,,,,,,9,1,acquisition_P,ｷ,ｲ,right,nr,m,Stimuli/Encoding/Trowel.jpg,9,1,pos,B,,,,,0,8,8,8,1,,,,,,,,,,,,,,,,,
,,11,001,2023-05-04_10h03.28.821,Experiment_Tuerk,2022.2.4,Win32,60.38647343,,,,,,,,,,,,,,,,,,,,,,,,,,,,,,,,,,,,,,,,,,,,,,,,,,,,,,,,,,,,,,,,,,,,,,,,,,,,,,,,,,,,,,,,,,,,,,,,,,,,,,,,,,,,,,,,,,m,1,0.418,,,,,,,,10,1,acquisition_P,ｲ,ｷ,left,nr,m,Stimuli/Encoding/Goat.jpg,10,1,pos,B,,,,,0,9,9,9,1,,,,,,,,,,,,,,,,,
,,11,001,2023-05-04_10h03.28.821,Experiment_Tuerk,2022.2.4,Win32,60.38647343,,,,,,,,,,,,,,,,,,,,,,,,,,,,,,,,,,,,,,,,,,,,,,,,,,,,,,,,,,,,,,,,,,,,,,,,,,,,,,,,,,,,,,,,,,,,,,,,,,,,,,,,,,,,,,,,,,c,1,0.617,,,,,,,,11,1,acquisition_P,ｷ,ｲ,left,r,c,Stimuli/Encoding/Headset.jpg,11,1,pos,B,,,,,0,10,10,10,1,,,,,,,,,,,,,,,,,
,,11,001,2023-05-04_10h03.28.821,Experiment_Tuerk,2022.2.4,Win32,60.38647343,,,,,,,,,,,,,,,,,,,,,,,,,,,,,,,,,,,,,,,,,,,,,,,,,,,,,,,,,,,,,,,,,,,,,,,,,,,,,,,,,,,,,,,,,,,,,,,,,,,,,,,,,,,,,,,,,,m,1,0.84,,,,,,,,12,1,acquisition_P,ｷ,ｲ,right,nr,m,Stimuli/Encoding/Broom_Short.jpg,12,1,pos,B,,,,,0,11,11,11,1,,,,,,,,,,,,,,,,,
,,11,001,2023-05-04_10h03.28.821,Experiment_Tuerk,2022.2.4,Win32,60.38647343,,,,,,,,,,,,,,,,,,,,,,,,,,,,,,,,,,,,,,,,,,,,,,,,,,,,,,,,,,,,,,,,,,,,,,,,,,,,,,,,,,,,,,,,,,,,,,,,,,,,,,,,,,,,,,,,,,c,1,0.493,,,,,,,,13,1,acquisition_P,ｷ,ｲ,left,r,c,Stimuli/Encoding/Boardgame_Chess.jpg,13,1,pos,B,,,,,0,12,12,12,1,,,,,,,,,,,,,,,,,
,,11,001,2023-05-04_10h03.28.821,Experiment_Tuerk,2022.2.4,Win32,60.38647343,,,,,,,,,,,,,,,,,,,,,,,,,,,,,,,,,,,,,,,,,,,,,,,,,,,,,,,,,,,,,,,,,,,,,,,,,,,,,,,,,,,,,,,,,,,,,,,,,,,,,,,,,,,,,,,,,,m,1,0.484,,,,,,,,14,1,acquisition_P,ｷ,ｲ,right,nr,m,Stimuli/Encoding/MeterElectric.jpg,14,1,pos,B,,,,,0,13,13,13,1,,,,,,,,,,,,,,,,,
,,11,001,2023-05-04_10h03.28.821,Experiment_Tuerk,2022.2.4,Win32,60.38647343,,,,,,,,,,,,,,,,,,,,,,,,,,,,,,,,,,,,,,,,,,,,,,,,,,,,,,,,,,,,,,,,,,,,,,,,,,,,,,,,,,,,,,,,,,,,,,,,,,,,,,,,,,,,,,,,,,c,1,0.374,,,,,,,,15,1,acquisition_P,ｲ,ｷ,right,r,c,Stimuli/Encoding/Cassette_Video.jpg,15,1,pos,B,,,,,0,14,14,14,1,,,,,,,,,,,,,,,,,
,,11,001,2023-05-04_10h03.28.821,Experiment_Tuerk,2022.2.4,Win32,60.38647343,,,,,,,,,,,,,,,,,,,,,,,,,,,,,,,,,,,,,,,,,,,,,,,,,,,,,,,,,,,,,,,,,,,,,,,,,,,,,,,,,,,,,,,,,,,,,,,,,,,,,,,,,,,,,,,,,,m,1,0.489,,,,,,,,16,1,acquisition_P,ｲ,ｷ,left,nr,m,Stimuli/Encoding/DogFood.jpg,16,1,pos,B,,,,,0,15,15,15,1,,,,,,,,,,,,,,,,,
,,11,001,2023-05-04_10h03.28.821,Experiment_Tuerk,2022.2.4,Win32,60.38647343,,,,,,,,,,,,,,,,,,,,,,,,,,,,,,,,,,,,,,,,,,,,,,,,,,,,,,,,,,,,,,,,,,,,,,,,,,,,,,,,,,,,,,,,,,,,,,,,,,,,,,,,,,,,,,,,,,m,1,0.727,,,,,,,,17,1,acquisition_P,ｲ,ｷ,left,nr,m,Stimuli/Encoding/PoliceTape.jpg,17,1,pos,B,,,,,0,16,16,16,1,,,,,,,,,,,,,,,,,
,,11,001,2023-05-04_10h03.28.821,Experiment_Tuerk,2022.2.4,Win32,60.38647343,,,,,,,,,,,,,,,,,,,,,,,,,,,,,,,,,,,,,,,,,,,,,,,,,,,,,,,,,,,,,,,,,,,,,,,,,,,,,,,,,,,,,,,,,,,,,,,,,,,,,,,,,,,,,,,,,,m,1,0.608,,,,,,,,18,1,acquisition_P,ｲ,ｷ,left,nr,m,Stimuli/Encoding/ProcessorFood_Old.jpg,18,1,pos,B,,,,,0,17,17,17,1,,,,,,,,,,,,,,,,,
,,11,001,2023-05-04_10h03.28.821,Experiment_Tuerk,2022.2.4,Win32,60.38647343,,,,,,,,,,,,,,,,,,,,,,,,,,,,,,,,,,,,,,,,,,,,,,,,,,,,,,,,,,,,,,,,,,,,,,,,,,,,,,,,,,,,,,,,,,,,,,,,,,,,,,,,,,,,,,,,,,m,1,0.553,,,,,,,,19,1,acquisition_P,ｷ,ｲ,right,nr,m,Stimuli/Encoding/PlayerFootball.jpg,19,1,pos,B,,,,,0,18,18,18,1,,,,,,,,,,,,,,,,,
,,11,001,2023-05-04_10h03.28.821,Experiment_Tuerk,2022.2.4,Win32,60.38647343,,,,,,,,,,,,,,,,,,,,,,,,,,,,,,,,,,,,,,,,,,,,,,,,,,,,,,,,,,,,,,,,,,,,,,,,,,,,,,,,,,,,,,,,,,,,,,,,,,,,,,,,,,,,,,,,,,c,1,0.502,,,,,,,,20,1,acquisition_P,ｲ,ｷ,right,r,c,Stimuli/Encoding/Plunger.jpg,20,1,pos,B,,,,,0,19,19,19,1,,,,,,,,,,,,,,,,,
,,11,001,2023-05-04_10h03.28.821,Experiment_Tuerk,2022.2.4,Win32,60.38647343,,,,,,,,,,,,,,,,,,,,,,,,,,,,,,,,,,,,,,,,,,,,,,,,,,,,,,,,,,,,,,,,,,,,,,,,,,,,,,,,,,,,,,,,,,,,,,,,,,,,,,,,,,,,,,,,,,c,1,0.384,,,,,,,,21,1,acquisition_P,ｲ,ｷ,right,r,c,Stimuli/Encoding/Jet.jpg,21,1,pos,B,,,,,0,20,20,20,1,,,,,,,,,,,,,,,,,
,,11,001,2023-05-04_10h03.28.821,Experiment_Tuerk,2022.2.4,Win32,60.38647343,,,,,,,,,,,,,,,,,,,,,,,,,,,,,,,,,,,,,,,,,,,,,,,,,,,,,,,,,,,,,,,,,,,,,,,,,,,,,,,,,,,,,,,,,,,,,,,,,,,,,,,,,,,,,,,,,,c,1,0.476,,,,,,,,22,1,acquisition_P,ｷ,ｲ,left,nr,c,Stimuli/Encoding/Golf_Club.jpg,22,0,pos,B,,,,,0,21,21,21,1,,,,,,,,,,,,,,,,,
,,11,001,2023-05-04_10h03.28.821,Experiment_Tuerk,2022.2.4,Win32,60.38647343,,,,,,,,,,,,,,,,,,,,,,,,,,,,,,,,,,,,,,,,,,,,,,,,,,,,,,,,,,,,,,,,,,,,,,,,,,,,,,,,,,,,,,,,,,,,,,,,,,,,,,,,,,,,,,,,,,m,1,0.936,,,,,,,,23,1,acquisition_P,ｲ,ｷ,left,r,m,Stimuli/Encoding/Cabinet_Display.jpg,23,0,pos,B,,,,,0,22,22,22,1,,,,,,,,,,,,,,,,,
,,11,001,2023-05-04_10h03.28.821,Experiment_Tuerk,2022.2.4,Win32,60.38647343,,,,,,,,,,,,,,,,,,,,,,,,,,,,,,,,,,,,,,,,,,,,,,,,,,,,,,,,,,,,,,,,,,,,,,,,,,,,,,,,,,,,,,,,,,,,,,,,,,,,,,,,,,,,,,,,,,m,0,0.766,,,,,,,,24,1,acquisition_P,ｲ,ｷ,right,nr,c,Stimuli/Encoding/Truck_Box.jpg,24,0,pos,B,,,,,0,23,23,23,1,,,,,,,,,,,,,,,,,
,,11,001,2023-05-04_10h03.28.821,Experiment_Tuerk,2022.2.4,Win32,60.38647343,,,,,,,,,,,,,,,,,,,,,,,,,,,,,,,,,,,,,,,,,,,,,,,,,,,,,,,,,,,,,,,,,,,,,,,,,,,,,,,,,,,,,,,,,,,,,,,,,,,,,,,,,,,,,,,,,,m,0,0.556,,,,,,,,25,1,acquisition_P,ｷ,ｲ,left,r,c,Stimuli/Encoding/Hat_Party.jpg,25,1,pos,B,,,,,0,24,24,24,1,,,,,,,,,,,,,,,,,
,,11,001,2023-05-04_10h03.28.821,Experiment_Tuerk,2022.2.4,Win32,60.38647343,,,,,,,,,,,,,,,,,,,,,,,,,,,,,,,,,,,,,,,,,,,,,,,,,,,,,,,,,,,,,,,,,,,,,,,,,,,,,,,,,,,,,,,,,,,,,,,,,,,,,,,,,,,,,,,,,,c,1,0.757,,,,,,,,26,1,acquisition_P,ｲ,ｷ,right,r,c,Stimuli/Encoding/Flamingo_Real.jpg,26,1,pos,B,,,,,0,25,25,25,1,,,,,,,,,,,,,,,,,
,,11,001,2023-05-04_10h03.28.821,Experiment_Tuerk,2022.2.4,Win32,60.38647343,,,,,,,,,,,,,,,,,,,,,,,,,,,,,,,,,,,,,,,,,,,,,,,,,,,,,,,,,,,,,,,,,,,,,,,,,,,,,,,,,,,,,,,,,,,,,,,,,,,,,,,,,,,,,,,,,,m,1,0.474,,,,,,,,27,1,acquisition_P,ｷ,ｲ,right,nr,m,Stimuli/Encoding/Toy_ElephantPlastic.jpg,27,1,pos,B,,,,,0,26,26,26,1,,,,,,,,,,,,,,,,,
,,11,001,2023-05-04_10h03.28.821,Experiment_Tuerk,2022.2.4,Win32,60.38647343,,,,,,,,,,,,,,,,,,,,,,,,,,,,,,,,,,,,,,,,,,,,,,,,,,,,,,,,,,,,,,,,,,,,,,,,,,,,,,,,,,,,,,,,,,,,,,,,,,,,,,,,,,,,,,,,,,c,1,0.65,,,,,,,,28,1,acquisition_P,ｲ,ｷ,right,nr,c,Stimuli/Encoding/HairScrunchie.jpg,28,0,pos,B,,,,,0,27,27,27,1,,,,,,,,,,,,,,,,,
,,11,001,2023-05-04_10h03.28.821,Experiment_Tuerk,2022.2.4,Win32,60.38647343,,,,,,,,,,,,,,,,,,,,,,,,,,,,,,,,,,,,,,,,,,,,,,,,,,,,,,,,,,,,,,,,,,,,,,,,,,,,,,,,,,,,,,,,,,,,,,,,,,,,,,,,,,,,,,,,,,c,0,0.434,,,,,,,,29,1,acquisition_P,ｷ,ｲ,right,r,m,Stimuli/Encoding/Jetski.jpg,29,0,pos,B,,,,,0,28,28,28,1,,,,,,,,,,,,,,,,,
,,11,001,2023-05-04_10h03.28.821,Experiment_Tuerk,2022.2.4,Win32,60.38647343,,,,,,,,,,,,,,,,,,,,,,,,,,,,,,,,,,,,,,,,,,,,,,,,,,,,,,,,,,,,,,,,,,,,,,,,,,,,,,,,,,,,,,,,,,,,,,,,,,,,,,,,,,,,,,,,,,c,0,0.533,,,,,,,,30,1,acquisition_P,ｲ,ｷ,left,r,m,Stimuli/Encoding/Playground.jpg,30,0,pos,B,,,,,0,29,29,29,1,,,,,,,,,,,,,,,,,
,,11,001,2023-05-04_10h03.28.821,Experiment_Tuerk,2022.2.4,Win32,60.38647343,,,,,,,,,,,,,,,,,,,,,,,,,,,,,,,,,,,,,,,,,,,,,,,,,,,,,,,,,,,,,,,,,,,,,,,,,,,,,,,,,,,,,,,,,,,,,,,,,,,,,,,,,,,,,,,,,,m,0,0.465,,,,,,,,31,1,acquisition_P,ｷ,ｲ,left,r,c,Stimuli/Encoding/CigarCase.jpg,31,1,pos,B,,,,,0,30,30,30,1,,,,,,,,,,,,,,,,,
,,11,001,2023-05-04_10h03.28.821,Experiment_Tuerk,2022.2.4,Win32,60.38647343,,,,,,,,,,,,,,,,,,,,,,,,,,,,,,,,,,,,,,,,,,,,,,,,,,,,,,,,,,,,,,,,,,,,,,,,,,,,,,,,,,,,,,,,,,,,,,,,,,,,,,,,,,,,,,,,,,m,1,0.666,,,,,,,,32,1,acquisition_P,ｷ,ｲ,right,nr,m,Stimuli/Encoding/Pacifier.jpg,32,1,pos,B,,,,,0,31,31,31,1,,,,,,,,,,,,,,,,,
,,11,001,2023-05-04_10h03.28.821,Experiment_Tuerk,2022.2.4,Win32,60.38647343,,,,,,,,,,,,,,,,,,,,,,,,,,,,,,,,,,,,,,,,,,,,,,,,,,,,,,,,,,,,,,,,,,,,,,,,,,,,,,,,,,,,,,,,,,,,,,,,,,,,,,,,,,,,,,,,,,m,0,0.519,,,,,,,,33,2,reversal_P_N,ｲ,ｷ,left,loss,c,Stimuli/Encoding/Chair_BeanBag.jpg,1,0,neg,B,,,,,0,32,32,32,1,,,,,,,,,,,,,,,,,
,,11,001,2023-05-04_10h03.28.821,Experiment_Tuerk,2022.2.4,Win32,60.38647343,,,,,,,,,,,,,,,,,,,,,,,,,,,,,,,,,,,,,,,,,,,,,,,,,,,,,,,,,,,,,,,,,,,,,,,,,,,,,,,,,,,,,,,,,,,,,,,,,,,,,,,,,,,,,,,,,,m,0,0.589,,,,,,,,34,2,reversal_P_N,ｲ,ｷ,left,loss,c,Stimuli/Encoding/LampPost_WhiteOrnate.jpg,2,0,neg,B,,,,,0,33,33,33,1,,,,,,,,,,,,,,,,,
,,11,001,2023-05-04_10h03.28.821,Experiment_Tuerk,2022.2.4,Win32,60.38647343,,,,,,,,,,,,,,,,,,,,,,,,,,,,,,,,,,,,,,,,,,,,,,,,,,,,,,,,,,,,,,,,,,,,,,,,,,,,,,,,,,,,,,,,,,,,,,,,,,,,,,,,,,,,,,,,,,m,1,0.617,,,,,,,,35,2,reversal_P_N,ｷ,ｲ,right,loss,m,Stimuli/Encoding/Arch_Triomphe.jpg,3,1,neg,B,,,,,0,34,34,34,1,,,,,,,,,,,,,,,,,
,,11,001,2023-05-04_10h03.28.821,Experiment_Tuerk,2022.2.4,Win32,60.38647343,,,,,,,,,,,,,,,,,,,,,,,,,,,,,,,,,,,,,,,,,,,,,,,,,,,,,,,,,,,,,,,,,,,,,,,,,,,,,,,,,,,,,,,,,,,,,,,,,,,,,,,,,,,,,,,,,,m,0,0.609,,,,,,,,36,2,reversal_P_N,ｷ,ｲ,left,nl,c,Stimuli/Encoding/Tray_Metal.jpg,4,1,neg,B,,,,,0,35,35,35,1,,,,,,,,,,,,,,,,,
,,11,001,2023-05-04_10h03.28.821,Experiment_Tuerk,2022.2.4,Win32,60.38647343,,,,,,,,,,,,,,,,,,,,,,,,,,,,,,,,,,,,,,,,,,,,,,,,,,,,,,,,,,,,,,,,,,,,,,,,,,,,,,,,,,,,,,,,,,,,,,,,,,,,,,,,,,,,,,,,,,c,0,0.382,,,,,,,,37,2,reversal_P_N,ｲ,ｷ,right,loss,m,Stimuli/Encoding/Compact_Powder.jpg,5,1,neg,B,,,,,0,36,36,36,1,,,,,,,,,,,,,,,,,
,,11,001,2023-05-04_10h03.28.821,Experiment_Tuerk,2022.2.4,Win32,60.38647343,,,,,,,,,,,,,,,,,,,,,,,,,,,,,,,,,,,,,,,,,,,,,,,,,,,,,,,,,,,,,,,,,,,,,,,,,,,,,,,,,,,,,,,,,,,,,,,,,,,,,,,,,,,,,,,,,,c,1,0.393,,,,,,,,38,2,reversal_P_N,ｲ,ｷ,left,nl,c,Stimuli/Encoding/FuzzyDice.jpg,6,1,neg,B,,,,,0,37,37,37,1,,,,,,,,,,,,,,,,,
,,11,001,2023-05-04_10h03.28.821,Experiment_Tuerk,2022.2.4,Win32,60.38647343,,,,,,,,,,,,,,,,,,,,,,,,,,,,,,,,,,,,,,,,,,,,,,,,,,,,,,,,,,,,,,,,,,,,,,,,,,,,,,,,,,,,,,,,,,,,,,,,,,,,,,,,,,,,,,,,,,m,1,0.45,,,,,,,,39,2,reversal_P_N,ｲ,ｷ,right,loss,m,Stimuli/Encoding/Snorkle.jpg,7,1,neg,B,,,,,0,38,38,38,1,,,,,,,,,,,,,,,,,
,,11,001,2023-05-04_10h03.28.821,Experiment_Tuerk,2022.2.4,Win32,60.38647343,,,,,,,,,,,,,,,,,,,,,,,,,,,,,,,,,,,,,,,,,,,,,,,,,,,,,,,,,,,,,,,,,,,,,,,,,,,,,,,,,,,,,,,,,,,,,,,,,,,,,,,,,,,,,,,,,,m,1,0.467,,,,,,,,40,2,reversal_P_N,ｷ,ｲ,left,loss,m,Stimuli/Encoding/Blanket.jpg,8,0,neg,B,,,,,0,39,39,39,1,,,,,,,,,,,,,,,,,
,,11,001,2023-05-04_10h03.28.821,Experiment_Tuerk,2022.2.4,Win32,60.38647343,,,,,,,,,,,,,,,,,,,,,,,,,,,,,,,,,,,,,,,,,,,,,,,,,,,,,,,,,,,,,,,,,,,,,,,,,,,,,,,,,,,,,,,,,,,,,,,,,,,,,,,,,,,,,,,,,,m,1,0.638,,,,,,,,41,2,reversal_P_N,ｲ,ｷ,right,nl,m,Stimuli/Encoding/Glass_Beer.jpg,9,0,neg,B,,,,,0,40,40,40,1,,,,,,,,,,,,,,,,,
,,11,001,2023-05-04_10h03.28.821,Experiment_Tuerk,2022.2.4,Win32,60.38647343,,,,,,,,,,,,,,,,,,,,,,,,,,,,,,,,,,,,,,,,,,,,,,,,,,,,,,,,,,,,,,,,,,,,,,,,,,,,,,,,,,,,,,,,,,,,,,,,,,,,,,,,,,,,,,,,,,m,1,1.1,,,,,,,,42,2,reversal_P_N,ｷ,ｲ,right,loss,m,Stimuli/Encoding/LetterMail.jpg,10,1,neg,B,,,,,0,41,41,41,1,,,,,,,,,,,,,,,,,
,,11,001,2023-05-04_10h03.28.821,Experiment_Tuerk,2022.2.4,Win32,60.38647343,,,,,,,,,,,,,,,,,,,,,,,,,,,,,,,,,,,,,,,,,,,,,,,,,,,,,,,,,,,,,,,,,,,,,,,,,,,,,,,,,,,,,,,,,,,,,,,,,,,,,,,,,,,,,,,,,,c,1,0.652,,,,,,,,43,2,reversal_P_N,ｷ,ｲ,left,nl,c,Stimuli/Encoding/Aquarium.jpg,11,1,neg,B,,,,,0,42,42,42,1,,,,,,,,,,,,,,,,,
,,11,001,2023-05-04_10h03.28.821,Experiment_Tuerk,2022.2.4,Win32,60.38647343,,,,,,,,,,,,,,,,,,,,,,,,,,,,,,,,,,,,,,,,,,,,,,,,,,,,,,,,,,,,,,,,,,,,,,,,,,,,,,,,,,,,,,,,,,,,,,,,,,,,,,,,,,,,,,,,,,m,0,0.52,,,,,,,,44,2,reversal_P_N,ｲ,ｷ,left,nl,c,Stimuli/Encoding/StreetSweeper.jpg,12,1,neg,B,,,,,0,43,43,43,1,,,,,,,,,,,,,,,,,
,,11,001,2023-05-04_10h03.28.821,Experiment_Tuerk,2022.2.4,Win32,60.38647343,,,,,,,,,,,,,,,,,,,,,,,,,,,,,,,,,,,,,,,,,,,,,,,,,,,,,,,,,,,,,,,,,,,,,,,,,,,,,,,,,,,,,,,,,,,,,,,,,,,,,,,,,,,,,,,,,,m,1,0.586,,,,,,,,45,2,reversal_P_N,ｲ,ｷ,right,loss,m,Stimuli/Encoding/Toy_Boat.jpg,13,1,neg,B,,,,,0,44,44,44,1,,,,,,,,,,,,,,,,,
,,11,001,2023-05-04_10h03.28.821,Experiment_Tuerk,2022.2.4,Win32,60.38647343,,,,,,,,,,,,,,,,,,,,,,,,,,,,,,,,,,,,,,,,,,,,,,,,,,,,,,,,,,,,,,,,,,,,,,,,,,,,,,,,,,,,,,,,,,,,,,,,,,,,,,,,,,,,,,,,,,m,0,0.384,,,,,,,,46,2,reversal_P_N,ｷ,ｲ,left,nl,c,Stimuli/Encoding/Butterfly.jpg,14,1,neg,B,,,,,0,45,45,45,1,,,,,,,,,,,,,,,,,
,,11,001,2023-05-04_10h03.28.821,Experiment_Tuerk,2022.2.4,Win32,60.38647343,,,,,,,,,,,,,,,,,,,,,,,,,,,,,,,,,,,,,,,,,,,,,,,,,,,,,,,,,,,,,,,,,,,,,,,,,,,,,,,,,,,,,,,,,,,,,,,,,,,,,,,,,,,,,,,,,,c,0,0.549,,,,,,,,47,2,reversal_P_N,ｲ,ｷ,right,loss,m,Stimuli/Encoding/Archery_ArrowsBows.jpg,15,1,neg,B,,,,,0,46,46,46,1,,,,,,,,,,,,,,,,,
,,11,001,2023-05-04_10h03.28.821,Experiment_Tuerk,2022.2.4,Win32,60.38647343,,,,,,,,,,,,,,,,,,,,,,,,,,,,,,,,,,,,,,,,,,,,,,,,,,,,,,,,,,,,,,,,,,,,,,,,,,,,,,,,,,,,,,,,,,,,,,,,,,,,,,,,,,,,,,,,,,c,0,0.756,,,,,,,,48,2,reversal_P_N,ｷ,ｲ,right,loss,m,Stimuli/Encoding/Shirt_Tshirt.jpg,16,1,neg,B,,,,,0,47,47,47,1,,,,,,,,,,,,,,,,,
,,11,001,2023-05-04_10h03.28.821,Experiment_Tuerk,2022.2.4,Win32,60.38647343,,,,,,,,,,,,,,,,,,,,,,,,,,,,,,,,,,,,,,,,,,,,,,,,,,,,,,,,,,,,,,,,,,,,,,,,,,,,,,,,,,,,,,,,,,,,,,,,,,,,,,,,,,,,,,,,,,m,0,0.419,,,,,,,,49,2,reversal_P_N,ｷ,ｲ,right,nl,c,Stimuli/Encoding/Hay.jpg,17,0,neg,B,,,,,0,48,48,48,1,,,,,,,,,,,,,,,,,
,,11,001,2023-05-04_10h03.28.821,Experiment_Tuerk,2022.2.4,Win32,60.38647343,,,,,,,,,,,,,,,,,,,,,,,,,,,,,,,,,,,,,,,,,,,,,,,,,,,,,,,,,,,,,,,,,,,,,,,,,,,,,,,,,,,,,,,,,,,,,,,,,,,,,,,,,,,,,,,,,,c,1,1.05,,,,,,,,50,2,reversal_P_N,ｲ,ｷ,left,nl,c,Stimuli/Encoding/Stingray.jpg,18,1,neg,B,,,,,0,49,49,49,1,,,,,,,,,,,,,,,,,
,,11,001,2023-05-04_10h03.28.821,Experiment_Tuerk,2022.2.4,Win32,60.38647343,,,,,,,,,,,,,,,,,,,,,,,,,,,,,,,,,,,,,,,,,,,,,,,,,,,,,,,,,,,,,,,,,,,,,,,,,,,,,,,,,,,,,,,,,,,,,,,,,,,,,,,,,,,,,,,,,,m,0,0.837,,,,,,,,51,2,reversal_P_N,ｲ,ｷ,left,nl,c,Stimuli/Encoding/PirateFlag.jpg,19,1,neg,B,,,,,0,50,50,50,1,,,,,,,,,,,,,,,,,
,,11,001,2023-05-04_10h03.28.821,Experiment_Tuerk,2022.2.4,Win32,60.38647343,,,,,,,,,,,,,,,,,,,,,,,,,,,,,,,,,,,,,,,,,,,,,,,,,,,,,,,,,,,,,,,,,,,,,,,,,,,,,,,,,,,,,,,,,,,,,,,,,,,,,,,,,,,,,,,,,,m,0,0.384,,,,,,,,52,2,reversal_P_N,ｷ,ｲ,left,nl,c,Stimuli/Encoding/KeyHook_Occupied.jpg,20,1,neg,B,,,,,0,51,51,51,1,,,,,,,,,,,,,,,,,
,,11,001,2023-05-04_10h03.28.821,Experiment_Tuerk,2022.2.4,Win32,60.38647343,,,,,,,,,,,,,,,,,,,,,,,,,,,,,,,,,,,,,,,,,,,,,,,,,,,,,,,,,,,,,,,,,,,,,,,,,,,,,,,,,,,,,,,,,,,,,,,,,,,,,,,,,,,,,,,,,,m,0,0.918,,,,,,,,53,2,reversal_P_N,ｲ,ｷ,left,nl,c,Stimuli/Encoding/Glove_Baseball.jpg,21,1,neg,B,,,,,0,52,52,52,1,,,,,,,,,,,,,,,,,
,,11,001,2023-05-04_10h03.28.821,Experiment_Tuerk,2022.2.4,Win32,60.38647343,,,,,,,,,,,,,,,,,,,,,,,,,,,,,,,,,,,,,,,,,,,,,,,,,,,,,,,,,,,,,,,,,,,,,,,,,,,,,,,,,,,,,,,,,,,,,,,,,,,,,,,,,,,,,,,,,,c,0,0.5,,,,,,,,54,2,reversal_P_N,ｷ,ｲ,right,loss,m,Stimuli/Encoding/WaterColorPaintset.jpg,22,1,neg,B,,,,,0,53,53,53,1,,,,,,,,,,,,,,,,,
,,11,001,2023-05-04_10h03.28.821,Experiment_Tuerk,2022.2.4,Win32,60.38647343,,,,,,,,,,,,,,,,,,,,,,,,,,,,,,,,,,,,,,,,,,,,,,,,,,,,,,,,,,,,,,,,,,,,,,,,,,,,,,,,,,,,,,,,,,,,,,,,,,,,,,,,,,,,,,,,,,c,0,0.635,,,,,,,,55,2,reversal_P_N,ｷ,ｲ,right,loss,m,Stimuli/Encoding/Shoes_DutchClogs.jpg,23,1,neg,B,,,,,0,54,54,54,1,,,,,,,,,,,,,,,,,
,,11,001,2023-05-04_10h03.28.821,Experiment_Tuerk,2022.2.4,Win32,60.38647343,,,,,,,,,,,,,,,,,,,,,,,,,,,,,,,,,,,,,,,,,,,,,,,,,,,,,,,,,,,,,,,,,,,,,,,,,,,,,,,,,,,,,,,,,,,,,,,,,,,,,,,,,,,,,,,,,,c,0,0.87,,,,,,,,56,2,reversal_P_N,ｲ,ｷ,right,loss,m,Stimuli/Encoding/Buffalo.jpg,24,1,neg,B,,,,,0,55,55,55,1,,,,,,,,,,,,,,,,,
,,11,001,2023-05-04_10h03.28.821,Experiment_Tuerk,2022.2.4,Win32,60.38647343,,,,,,,,,,,,,,,,,,,,,,,,,,,,,,,,,,,,,,,,,,,,,,,,,,,,,,,,,,,,,,,,,,,,,,,,,,,,,,,,,,,,,,,,,,,,,,,,,,,,,,,,,,,,,,,,,,c,1,0.892,,,,,,,,57,2,reversal_P_N,ｲ,ｷ,left,nl,c,Stimuli/Encoding/Blueprints.jpg,25,1,neg,B,,,,,0,56,56,56,1,,,,,,,,,,,,,,,,,
,,11,001,2023-05-04_10h03.28.821,Experiment_Tuerk,2022.2.4,Win32,60.38647343,,,,,,,,,,,,,,,,,,,,,,,,,,,,,,,,,,,,,,,,,,,,,,,,,,,,,,,,,,,,,,,,,,,,,,,,,,,,,,,,,,,,,,,,,,,,,,,,,,,,,,,,,,,,,,,,,,c,1,1.217,,,,,,,,58,2,reversal_P_N,ｷ,ｲ,left,nl,c,Stimuli/Encoding/Pickaxe.jpg,26,1,neg,B,,,,,0,57,57,57,1,,,,,,,,,,,,,,,,,
,,11,001,2023-05-04_10h03.28.821,Experiment_Tuerk,2022.2.4,Win32,60.38647343,,,,,,,,,,,,,,,,,,,,,,,,,,,,,,,,,,,,,,,,,,,,,,,,,,,,,,,,,,,,,,,,,,,,,,,,,,,,,,,,,,,,,,,,,,,,,,,,,,,,,,,,,,,,,,,,,,m,1,0.701,,,,,,,,59,2,reversal_P_N,ｷ,ｲ,right,loss,m,Stimuli/Encoding/Toy_MerryGoRound.jpg,27,1,neg,B,,,,,0,58,58,58,1,,,,,,,,,,,,,,,,,
,,11,001,2023-05-04_10h03.28.821,Experiment_Tuerk,2022.2.4,Win32,60.38647343,,,,,,,,,,,,,,,,,,,,,,,,,,,,,,,,,,,,,,,,,,,,,,,,,,,,,,,,,,,,,,,,,,,,,,,,,,,,,,,,,,,,,,,,,,,,,,,,,,,,,,,,,,,,,,,,,,m,1,1.119,,,,,,,,60,2,reversal_P_N,ｲ,ｷ,right,nl,m,Stimuli/Encoding/Bird_Duck.jpg,28,0,neg,B,,,,,0,59,59,59,1,,,,,,,,,,,,,,,,,
,,11,001,2023-05-04_10h03.28.821,Experiment_Tuerk,2022.2.4,Win32,60.38647343,,,,,,,,,,,,,,,,,,,,,,,,,,,,,,,,,,,,,,,,,,,,,,,,,,,,,,,,,,,,,,,,,,,,,,,,,,,,,,,,,,,,,,,,,,,,,,,,,,,,,,,,,,,,,,,,,,c,0,0.524,,,,,,,,61,2,reversal_P_N,ｷ,ｲ,left,loss,m,Stimuli/Encoding/Mitt_Oven.jpg,29,0,neg,B,,,,,0,60,60,60,1,,,,,,,,,,,,,,,,,
,,11,001,2023-05-04_10h03.28.821,Experiment_Tuerk,2022.2.4,Win32,60.38647343,,,,,,,,,,,,,,,,,,,,,,,,,,,,,,,,,,,,,,,,,,,,,,,,,,,,,,,,,,,,,,,,,,,,,,,,,,,,,,,,,,,,,,,,,,,,,,,,,,,,,,,,,,,,,,,,,,c,0,0.425,,,,,,,,62,2,reversal_P_N,ｲ,ｷ,right,loss,m,Stimuli/Encoding/Arch.jpg,30,1,neg,B,,,,,0,61,61,61,1,,,,,,,,,,,,,,,,,
,,11,001,2023-05-04_10h03.28.821,Experiment_Tuerk,2022.2.4,Win32,60.38647343,,,,,,,,,,,,,,,,,,,,,,,,,,,,,,,,,,,,,,,,,,,,,,,,,,,,,,,,,,,,,,,,,,,,,,,,,,,,,,,,,,,,,,,,,,,,,,,,,,,,,,,,,,,,,,,,,,c,1,0.777,,,,,,,,63,2,reversal_P_N,ｷ,ｲ,right,nl,c,Stimuli/Encoding/Chair_Office.jpg,31,0,neg,B,,,,,0,62,62,62,1,,,,,,,,,,,,,,,,,
,,11,001,2023-05-04_10h03.28.821,Experiment_Tuerk,2022.2.4,Win32,60.38647343,,,,,,,,,,,,,,,,,,,,,,,,,,,,,,,,,,,,,,,,,,,,,,,,,,,,,,,,,,,,,,,,,,,,,,,,,,,,,,,,,,,,,,,,,,,,,,,,,,,,,,,,,,,,,,,,,,c,1,1.125,,,,,,,,64,2,reversal_P_N,ｷ,ｲ,left,nl,c,Stimuli/Encoding/Cassette_Audio.jpg,32,1,neg,B,,,,space,0,63,63,63,1,115.662,,,,,,,,,,,,,,,,
,,11,001,2023-05-04_10h03.28.821,Experiment_Tuerk,2022.2.4,Win32,60.38647343,,,,,,,,,,,,,,,,,,,,,,,,,,,,,,,,,,,,,,,,,,,,,,,,,,,,,,,,,,,,,,,,,,,,,,,,,,,,,,,,,,,,,,,,,,,,,,,,,,,,,,,,,,,,,,,,,,m,1,0.767,,,,,,,,65,3,acquisition_N,ｼ,ﾌ,left,nl,m,Stimuli/Encoding/SpiderWeb.jpg,1,0,neg,B,,,,,0,64,64,64,1,,,,,,,,,,,,,,,,,
,,11,001,2023-05-04_10h03.28.821,Experiment_Tuerk,2022.2.4,Win32,60.38647343,,,,,,,,,,,,,,,,,,,,,,,,,,,,,,,,,,,,,,,,,,,,,,,,,,,,,,,,,,,,,,,,,,,,,,,,,,,,,,,,,,,,,,,,,,,,,,,,,,,,,,,,,,,,,,,,,,c,0,0.415,,,,,,,,66,3,acquisition_N,ｼ,ﾌ,left,nl,m,Stimuli/Encoding/Bus_School.jpg,2,0,neg,B,,,,,0,65,65,65,1,,,,,,,,,,,,,,,,,
,,11,001,2023-05-04_10h03.28.821,Experiment_Tuerk,2022.2.4,Win32,60.38647343,,,,,,,,,,,,,,,,,,,,,,,,,,,,,,,,,,,,,,,,,,,,,,,,,,,,,,,,,,,,,,,,,,,,,,,,,,,,,,,,,,,,,,,,,,,,,,,,,,,,,,,,,,,,,,,,,,c,0,0.583,,,,,,,,67,3,acquisition_N,ﾌ,ｼ,right,loss,m,Stimuli/Encoding/Statue_Jesus.jpg,3,1,neg,B,,,,,0,66,66,66,1,,,,,,,,,,,,,,,,,
,,11,001,2023-05-04_10h03.28.821,Experiment_Tuerk,2022.2.4,Win32,60.38647343,,,,,,,,,,,,,,,,,,,,,,,,,,,,,,,,,,,,,,,,,,,,,,,,,,,,,,,,,,,,,,,,,,,,,,,,,,,,,,,,,,,,,,,,,,,,,,,,,,,,,,,,,,,,,,,,,,m,0,0.8,,,,,,,,68,3,acquisition_N,ｼ,ﾌ,right,nl,c,Stimuli/Encoding/Fryingpan.jpg,4,1,neg,B,,,,,0,67,67,67,1,,,,,,,,,,,,,,,,,
,,11,001,2023-05-04_10h03.28.821,Experiment_Tuerk,2022.2.4,Win32,60.38647343,,,,,,,,,,,,,,,,,,,,,,,,,,,,,,,,,,,,,,,,,,,,,,,,,,,,,,,,,,,,,,,,,,,,,,,,,,,,,,,,,,,,,,,,,,,,,,,,,,,,,,,,,,,,,,,,,,m,1,0.942,,,,,,,,69,3,acquisition_N,ｼ,ﾌ,left,loss,m,Stimuli/Encoding/Dropper.jpg,5,1,neg,B,,,,,0,68,68,68,1,,,,,,,,,,,,,,,,,
,,11,001,2023-05-04_10h03.28.821,Experiment_Tuerk,2022.2.4,Win32,60.38647343,,,,,,,,,,,,,,,,,,,,,,,,,,,,,,,,,,,,,,,,,,,,,,,,,,,,,,,,,,,,,,,,,,,,,,,,,,,,,,,,,,,,,,,,,,,,,,,,,,,,,,,,,,,,,,,,,,m,1,0.734,,,,,,,,70,3,acquisition_N,ｼ,ﾌ,left,loss,m,Stimuli/Encoding/Seashell_AlternateTellin.jpg,6,1,neg,B,,,,,0,69,69,69,1,,,,,,,,,,,,,,,,,
,,11,001,2023-05-04_10h03.28.821,Experiment_Tuerk,2022.2.4,Win32,60.38647343,,,,,,,,,,,,,,,,,,,,,,,,,,,,,,,,,,,,,,,,,,,,,,,,,,,,,,,,,,,,,,,,,,,,,,,,,,,,,,,,,,,,,,,,,,,,,,,,,,,,,,,,,,,,,,,,,,m,1,0.668,,,,,,,,71,3,acquisition_N,ﾌ,ｼ,right,nl,m,Stimuli/Encoding/CoffeePot.jpg,7,0,neg,B,,,,,0,70,70,70,1,,,,,,,,,,,,,,,,,
,,11,001,2023-05-04_10h03.28.821,Experiment_Tuerk,2022.2.4,Win32,60.38647343,,,,,,,,,,,,,,,,,,,,,,,,,,,,,,,,,,,,,,,,,,,,,,,,,,,,,,,,,,,,,,,,,,,,,,,,,,,,,,,,,,,,,,,,,,,,,,,,,,,,,,,,,,,,,,,,,,m,0,0.734,,,,,,,,72,3,acquisition_N,ｼ,ﾌ,right,loss,c,Stimuli/Encoding/PencilCase.jpg,8,0,neg,B,,,,,0,71,71,71,1,,,,,,,,,,,,,,,,,
,,11,001,2023-05-04_10h03.28.821,Experiment_Tuerk,2022.2.4,Win32,60.38647343,,,,,,,,,,,,,,,,,,,,,,,,,,,,,,,,,,,,,,,,,,,,,,,,,,,,,,,,,,,,,,,,,,,,,,,,,,,,,,,,,,,,,,,,,,,,,,,,,,,,,,,,,,,,,,,,,,m,0,0.939,,,,,,,,73,3,acquisition_N,ﾌ,ｼ,left,loss,c,Stimuli/Encoding/Hose_Garden.jpg,9,0,neg,B,,,,,0,72,72,72,1,,,,,,,,,,,,,,,,,
,,11,001,2023-05-04_10h03.28.821,Experiment_Tuerk,2022.2.4,Win32,60.38647343,,,,,,,,,,,,,,,,,,,,,,,,,,,,,,,,,,,,,,,,,,,,,,,,,,,,,,,,,,,,,,,,,,,,,,,,,,,,,,,,,,,,,,,,,,,,,,,,,,,,,,,,,,,,,,,,,,m,0,0.65,,,,,,,,74,3,acquisition_N,ﾌ,ｼ,left,nl,c,Stimuli/Encoding/Bread_Melon.jpg,10,1,neg,B,,,,,0,73,73,73,1,,,,,,,,,,,,,,,,,
,,11,001,2023-05-04_10h03.28.821,Experiment_Tuerk,2022.2.4,Win32,60.38647343,,,,,,,,,,,,,,,,,,,,,,,,,,,,,,,,,,,,,,,,,,,,,,,,,,,,,,,,,,,,,,,,,,,,,,,,,,,,,,,,,,,,,,,,,,,,,,,,,,,,,,,,,,,,,,,,,,c,1,0.656,,,,,,,,75,3,acquisition_N,ﾌ,ｼ,left,loss,c,Stimuli/Encoding/JuicerCitrus.jpg,11,0,neg,B,,,,,0,74,74,74,1,,,,,,,,,,,,,,,,,
,,11,001,2023-05-04_10h03.28.821,Experiment_Tuerk,2022.2.4,Win32,60.38647343,,,,,,,,,,,,,,,,,,,,,,,,,,,,,,,,,,,,,,,,,,,,,,,,,,,,,,,,,,,,,,,,,,,,,,,,,,,,,,,,,,,,,,,,,,,,,,,,,,,,,,,,,,,,,,,,,,c,0,0.552,,,,,,,,76,3,acquisition_N,ｼ,ﾌ,left,loss,m,Stimuli/Encoding/Comb.jpg,12,1,neg,B,,,,,0,75,75,75,1,,,,,,,,,,,,,,,,,
,,11,001,2023-05-04_10h03.28.821,Experiment_Tuerk,2022.2.4,Win32,60.38647343,,,,,,,,,,,,,,,,,,,,,,,,,,,,,,,,,,,,,,,,,,,,,,,,,,,,,,,,,,,,,,,,,,,,,,,,,,,,,,,,,,,,,,,,,,,,,,,,,,,,,,,,,,,,,,,,,,c,1,0.835,,,,,,,,77,3,acquisition_N,ｼ,ﾌ,right,nl,c,Stimuli/Encoding/LampPost_ThreeBulbs.jpg,13,1,neg,B,,,,,0,76,76,76,1,,,,,,,,,,,,,,,,,
,,11,001,2023-05-04_10h03.28.821,Experiment_Tuerk,2022.2.4,Win32,60.38647343,,,,,,,,,,,,,,,,,,,,,,,,,,,,,,,,,,,,,,,,,,,,,,,,,,,,,,,,,,,,,,,,,,,,,,,,,,,,,,,,,,,,,,,,,,,,,,,,,,,,,,,,,,,,,,,,,,c,1,0.406,,,,,,,,78,3,acquisition_N,ﾌ,ｼ,left,nl,c,Stimuli/Encoding/Mask_Gas.jpg,14,1,neg,B,,,,,0,77,77,77,1,,,,,,,,,,,,,,,,,
,,11,001,2023-05-04_10h03.28.821,Experiment_Tuerk,2022.2.4,Win32,60.38647343,,,,,,,,,,,,,,,,,,,,,,,,,,,,,,,,,,,,,,,,,,,,,,,,,,,,,,,,,,,,,,,,,,,,,,,,,,,,,,,,,,,,,,,,,,,,,,,,,,,,,,,,,,,,,,,,,,c,0,0.821,,,,,,,,79,3,acquisition_N,ｼ,ﾌ,left,loss,m,Stimuli/Encoding/Hockey_Puck.jpg,15,1,neg,B,,,,,0,78,78,78,1,,,,,,,,,,,,,,,,,
,,11,001,2023-05-04_10h03.28.821,Experiment_Tuerk,2022.2.4,Win32,60.38647343,,,,,,,,,,,,,,,,,,,,,,,,,,,,,,,,,,,,,,,,,,,,,,,,,,,,,,,,,,,,,,,,,,,,,,,,,,,,,,,,,,,,,,,,,,,,,,,,,,,,,,,,,,,,,,,,,,m,1,0.406,,,,,,,,80,3,acquisition_N,ﾌ,ｼ,right,loss,m,Stimuli/Encoding/Hippopotamus.jpg,16,1,neg,B,,,,,0,79,79,79,1,,,,,,,,,,,,,,,,,
,,11,001,2023-05-04_10h03.28.821,Experiment_Tuerk,2022.2.4,Win32,60.38647343,,,,,,,,,,,,,,,,,,,,,,,,,,,,,,,,,,,,,,,,,,,,,,,,,,,,,,,,,,,,,,,,,,,,,,,,,,,,,,,,,,,,,,,,,,,,,,,,,,,,,,,,,,,,,,,,,,m,1,0.459,,,,,,,,81,3,acquisition_N,ﾌ,ｼ,right,loss,m,Stimuli/Encoding/Megaphone.jpg,17,1,neg,B,,,,,0,80,80,80,1,,,,,,,,,,,,,,,,,
,,11,001,2023-05-04_10h03.28.821,Experiment_Tuerk,2022.2.4,Win32,60.38647343,,,,,,,,,,,,,,,,,,,,,,,,,,,,,,,,,,,,,,,,,,,,,,,,,,,,,,,,,,,,,,,,,,,,,,,,,,,,,,,,,,,,,,,,,,,,,,,,,,,,,,,,,,,,,,,,,,m,1,0.542,,,,,,,,82,3,acquisition_N,ﾌ,ｼ,right,nl,m,Stimuli/Encoding/ChariotGold.jpg,18,0,neg,B,,,,,0,81,81,81,1,,,,,,,,,,,,,,,,,
,,11,001,2023-05-04_10h03.28.821,Experiment_Tuerk,2022.2.4,Win32,60.38647343,,,,,,,,,,,,,,,,,,,,,,,,,,,,,,,,,,,,,,,,,,,,,,,,,,,,,,,,,,,,,,,,,,,,,,,,,,,,,,,,,,,,,,,,,,,,,,,,,,,,,,,,,,,,,,,,,,m,0,0.843,,,,,,,,83,3,acquisition_N,ｼ,ﾌ,right,nl,c,Stimuli/Encoding/Backpack_Travel.jpg,19,1,neg,B,,,,,0,82,82,82,1,,,,,,,,,,,,,,,,,
,,11,001,2023-05-04_10h03.28.821,Experiment_Tuerk,2022.2.4,Win32,60.38647343,,,,,,,,,,,,,,,,,,,,,,,,,,,,,,,,,,,,,,,,,,,,,,,,,,,,,,,,,,,,,,,,,,,,,,,,,,,,,,,,,,,,,,,,,,,,,,,,,,,,,,,,,,,,,,,,,,m,1,0.482,,,,,,,,84,3,acquisition_N,ｼ,ﾌ,left,loss,m,Stimuli/Encoding/Telephone_Dial.jpg,20,1,neg,B,,,,,0,83,83,83,1,,,,,,,,,,,,,,,,,
,,11,001,2023-05-04_10h03.28.821,Experiment_Tuerk,2022.2.4,Win32,60.38647343,,,,,,,,,,,,,,,,,,,,,,,,,,,,,,,,,,,,,,,,,,,,,,,,,,,,,,,,,,,,,,,,,,,,,,,,,,,,,,,,,,,,,,,,,,,,,,,,,,,,,,,,,,,,,,,,,,c,1,0.526,,,,,,,,85,3,acquisition_N,ｼ,ﾌ,right,loss,c,Stimuli/Encoding/Toy_SeeSaw.jpg,21,0,neg,B,,,,,0,84,84,84,1,,,,,,,,,,,,,,,,,
,,11,001,2023-05-04_10h03.28.821,Experiment_Tuerk,2022.2.4,Win32,60.38647343,,,,,,,,,,,,,,,,,,,,,,,,,,,,,,,,,,,,,,,,,,,,,,,,,,,,,,,,,,,,,,,,,,,,,,,,,,,,,,,,,,,,,,,,,,,,,,,,,,,,,,,,,,,,,,,,,,c,0,0.815,,,,,,,,86,3,acquisition_N,ﾌ,ｼ,right,loss,m,Stimuli/Encoding/Bird_Pelican.jpg,22,1,neg,B,,,,,0,85,85,85,1,,,,,,,,,,,,,,,,,
,,11,001,2023-05-04_10h03.28.821,Experiment_Tuerk,2022.2.4,Win32,60.38647343,,,,,,,,,,,,,,,,,,,,,,,,,,,,,,,,,,,,,,,,,,,,,,,,,,,,,,,,,,,,,,,,,,,,,,,,,,,,,,,,,,,,,,,,,,,,,,,,,,,,,,,,,,,,,,,,,,c,1,0.518,,,,,,,,87,3,acquisition_N,ﾌ,ｼ,left,nl,c,Stimuli/Encoding/Sled.jpg,23,1,neg,B,,,,,0,86,86,86,1,,,,,,,,,,,,,,,,,
,,11,001,2023-05-04_10h03.28.821,Experiment_Tuerk,2022.2.4,Win32,60.38647343,,,,,,,,,,,,,,,,,,,,,,,,,,,,,,,,,,,,,,,,,,,,,,,,,,,,,,,,,,,,,,,,,,,,,,,,,,,,,,,,,,,,,,,,,,,,,,,,,,,,,,,,,,,,,,,,,,c,1,0.625,,,,,,,,88,3,acquisition_N,ﾌ,ｼ,left,nl,c,Stimuli/Encoding/Boat_Sail.jpg,24,1,neg,B,,,,,0,87,87,87,1,,,,,,,,,,,,,,,,,
,,11,001,2023-05-04_10h03.28.821,Experiment_Tuerk,2022.2.4,Win32,60.38647343,,,,,,,,,,,,,,,,,,,,,,,,,,,,,,,,,,,,,,,,,,,,,,,,,,,,,,,,,,,,,,,,,,,,,,,,,,,,,,,,,,,,,,,,,,,,,,,,,,,,,,,,,,,,,,,,,,m,1,0.553,,,,,,,,89,3,acquisition_N,ｼ,ﾌ,left,loss,m,Stimuli/Encoding/Perfume.jpg,25,1,neg,B,,,,,0,88,88,88,1,,,,,,,,,,,,,,,,,
,,11,001,2023-05-04_10h03.28.821,Experiment_Tuerk,2022.2.4,Win32,60.38647343,,,,,,,,,,,,,,,,,,,,,,,,,,,,,,,,,,,,,,,,,,,,,,,,,,,,,,,,,,,,,,,,,,,,,,,,,,,,,,,,,,,,,,,,,,,,,,,,,,,,,,,,,,,,,,,,,,c,1,0.871,,,,,,,,90,3,acquisition_N,ｼ,ﾌ,right,nl,c,Stimuli/Encoding/Clam.jpg,26,1,neg,B,,,,,0,89,89,89,1,,,,,,,,,,,,,,,,,
,,11,001,2023-05-04_10h03.28.821,Experiment_Tuerk,2022.2.4,Win32,60.38647343,,,,,,,,,,,,,,,,,,,,,,,,,,,,,,,,,,,,,,,,,,,,,,,,,,,,,,,,,,,,,,,,,,,,,,,,,,,,,,,,,,,,,,,,,,,,,,,,,,,,,,,,,,,,,,,,,,m,1,0.399,,,,,,,,91,3,acquisition_N,ﾌ,ｼ,right,loss,m,Stimuli/Encoding/Stamp.jpg,27,1,neg,B,,,,,0,90,90,90,1,,,,,,,,,,,,,,,,,
,,11,001,2023-05-04_10h03.28.821,Experiment_Tuerk,2022.2.4,Win32,60.38647343,,,,,,,,,,,,,,,,,,,,,,,,,,,,,,,,,,,,,,,,,,,,,,,,,,,,,,,,,,,,,,,,,,,,,,,,,,,,,,,,,,,,,,,,,,,,,,,,,,,,,,,,,,,,,,,,,,m,1,0.582,,,,,,,,92,3,acquisition_N,ﾌ,ｼ,right,loss,m,Stimuli/Encoding/Lens_Camera.jpg,28,1,neg,B,,,,,0,91,91,91,1,,,,,,,,,,,,,,,,,
,,11,001,2023-05-04_10h03.28.821,Experiment_Tuerk,2022.2.4,Win32,60.38647343,,,,,,,,,,,,,,,,,,,,,,,,,,,,,,,,,,,,,,,,,,,,,,,,,,,,,,,,,,,,,,,,,,,,,,,,,,,,,,,,,,,,,,,,,,,,,,,,,,,,,,,,,,,,,,,,,,c,1,0.382,,,,,,,,93,3,acquisition_N,ﾌ,ｼ,left,nl,c,Stimuli/Encoding/Phone_Public.jpg,29,1,neg,B,,,,,0,92,92,92,1,,,,,,,,,,,,,,,,,
,,11,001,2023-05-04_10h03.28.821,Experiment_Tuerk,2022.2.4,Win32,60.38647343,,,,,,,,,,,,,,,,,,,,,,,,,,,,,,,,,,,,,,,,,,,,,,,,,,,,,,,,,,,,,,,,,,,,,,,,,,,,,,,,,,,,,,,,,,,,,,,,,,,,,,,,,,,,,,,,,,c,1,0.5,,,,,,,,94,3,acquisition_N,ｼ,ﾌ,right,nl,c,Stimuli/Encoding/House_Rural.jpg,30,1,neg,B,,,,,0,93,93,93,1,,,,,,,,,,,,,,,,,
,,11,001,2023-05-04_10h03.28.821,Experiment_Tuerk,2022.2.4,Win32,60.38647343,,,,,,,,,,,,,,,,,,,,,,,,,,,,,,,,,,,,,,,,,,,,,,,,,,,,,,,,,,,,,,,,,,,,,,,,,,,,,,,,,,,,,,,,,,,,,,,,,,,,,,,,,,,,,,,,,,c,1,0.485,,,,,,,,95,3,acquisition_N,ﾌ,ｼ,left,nl,c,Stimuli/Encoding/KitchenCloth.jpg,31,1,neg,B,,,,,0,94,94,94,1,,,,,,,,,,,,,,,,,
,,11,001,2023-05-04_10h03.28.821,Experiment_Tuerk,2022.2.4,Win32,60.38647343,,,,,,,,,,,,,,,,,,,,,,,,,,,,,,,,,,,,,,,,,,,,,,,,,,,,,,,,,,,,,,,,,,,,,,,,,,,,,,,,,,,,,,,,,,,,,,,,,,,,,,,,,,,,,,,,,,c,1,0.449,,,,,,,,96,3,acquisition_N,ｼ,ﾌ,right,nl,c,Stimuli/Encoding/Stool_Metal.jpg,32,1,neg,B,,,,,0,95,95,95,1,,,,,,,,,,,,,,,,,
,,11,001,2023-05-04_10h03.28.821,Experiment_Tuerk,2022.2.4,Win32,60.38647343,,,,,,,,,,,,,,,,,,,,,,,,,,,,,,,,,,,,,,,,,,,,,,,,,,,,,,,,,,,,,,,,,,,,,,,,,,,,,,,,,,,,,,,,,,,,,,,,,,,,,,,,,,,,,,,,,,m,0,0.537,,,,,,,,97,4,reversal_N_P,ｼ,ﾌ,left,nr,c,Stimuli/Encoding/RamAnimal.jpg,1,0,pos,B,,,,,0,96,96,96,1,,,,,,,,,,,,,,,,,
,,11,001,2023-05-04_10h03.28.821,Experiment_Tuerk,2022.2.4,Win32,60.38647343,,,,,,,,,,,,,,,,,,,,,,,,,,,,,,,,,,,,,,,,,,,,,,,,,,,,,,,,,,,,,,,,,,,,,,,,,,,,,,,,,,,,,,,,,,,,,,,,,,,,,,,,,,,,,,,,,,m,0,0.373,,,,,,,,98,4,reversal_N_P,ｼ,ﾌ,left,nr,c,Stimuli/Encoding/Bowl_Sugar.jpg,2,0,pos,B,,,,,0,97,97,97,1,,,,,,,,,,,,,,,,,
,,11,001,2023-05-04_10h03.28.821,Experiment_Tuerk,2022.2.4,Win32,60.38647343,,,,,,,,,,,,,,,,,,,,,,,,,,,,,,,,,,,,,,,,,,,,,,,,,,,,,,,,,,,,,,,,,,,,,,,,,,,,,,,,,,,,,,,,,,,,,,,,,,,,,,,,,,,,,,,,,,m,0,0.348,,,,,,,,99,4,reversal_N_P,ｼ,ﾌ,left,r,c,Stimuli/Encoding/Fridge.jpg,3,1,pos,B,,,,,0,98,98,98,1,,,,,,,,,,,,,,,,,
,,11,001,2023-05-04_10h03.28.821,Experiment_Tuerk,2022.2.4,Win32,60.38647343,,,,,,,,,,,,,,,,,,,,,,,,,,,,,,,,,,,,,,,,,,,,,,,,,,,,,,,,,,,,,,,,,,,,,,,,,,,,,,,,,,,,,,,,,,,,,,,,,,,,,,,,,,,,,,,,,,m,1,0.409,,,,,,,,100,4,reversal_N_P,ｼ,ﾌ,right,nr,m,Stimuli/Encoding/Printer.jpg,4,1,pos,B,,,,,0,99,99,99,1,,,,,,,,,,,,,,,,,
,,11,001,2023-05-04_10h03.28.821,Experiment_Tuerk,2022.2.4,Win32,60.38647343,,,,,,,,,,,,,,,,,,,,,,,,,,,,,,,,,,,,,,,,,,,,,,,,,,,,,,,,,,,,,,,,,,,,,,,,,,,,,,,,,,,,,,,,,,,,,,,,,,,,,,,,,,,,,,,,,,m,1,0.41,,,,,,,,101,4,reversal_N_P,ﾌ,ｼ,left,nr,m,Stimuli/Encoding/SiloGrain.jpg,5,1,pos,B,,,,,0,100,100,100,1,,,,,,,,,,,,,,,,,
,,11,001,2023-05-04_10h03.28.821,Experiment_Tuerk,2022.2.4,Win32,60.38647343,,,,,,,,,,,,,,,,,,,,,,,,,,,,,,,,,,,,,,,,,,,,,,,,,,,,,,,,,,,,,,,,,,,,,,,,,,,,,,,,,,,,,,,,,,,,,,,,,,,,,,,,,,,,,,,,,,c,1,0.665,,,,,,,,102,4,reversal_N_P,ｼ,ﾌ,left,r,c,Stimuli/Encoding/Ship_Battle.jpg,6,1,pos,B,,,,,0,101,101,101,1,,,,,,,,,,,,,,,,,
,,11,001,2023-05-04_10h03.28.821,Experiment_Tuerk,2022.2.4,Win32,60.38647343,,,,,,,,,,,,,,,,,,,,,,,,,,,,,,,,,,,,,,,,,,,,,,,,,,,,,,,,,,,,,,,,,,,,,,,,,,,,,,,,,,,,,,,,,,,,,,,,,,,,,,,,,,,,,,,,,,m,0,0.517,,,,,,,,103,4,reversal_N_P,ﾌ,ｼ,right,r,c,Stimuli/Encoding/Door_Green.jpg,7,1,pos,B,,,,,0,102,102,102,1,,,,,,,,,,,,,,,,,
,,11,001,2023-05-04_10h03.28.821,Experiment_Tuerk,2022.2.4,Win32,60.38647343,,,,,,,,,,,,,,,,,,,,,,,,,,,,,,,,,,,,,,,,,,,,,,,,,,,,,,,,,,,,,,,,,,,,,,,,,,,,,,,,,,,,,,,,,,,,,,,,,,,,,,,,,,,,,,,,,,c,1,0.376,,,,,,,,104,4,reversal_N_P,ｼ,ﾌ,left,r,c,Stimuli/Encoding/Steeple.jpg,8,1,pos,B,,,,,0,103,103,103,1,,,,,,,,,,,,,,,,,
,,11,001,2023-05-04_10h03.28.821,Experiment_Tuerk,2022.2.4,Win32,60.38647343,,,,,,,,,,,,,,,,,,,,,,,,,,,,,,,,,,,,,,,,,,,,,,,,,,,,,,,,,,,,,,,,,,,,,,,,,,,,,,,,,,,,,,,,,,,,,,,,,,,,,,,,,,,,,,,,,,m,1,0.585,,,,,,,,105,4,reversal_N_P,ﾌ,ｼ,left,nr,m,Stimuli/Encoding/Hottub.jpg,9,1,pos,B,,,,,0,104,104,104,1,,,,,,,,,,,,,,,,,
,,11,001,2023-05-04_10h03.28.821,Experiment_Tuerk,2022.2.4,Win32,60.38647343,,,,,,,,,,,,,,,,,,,,,,,,,,,,,,,,,,,,,,,,,,,,,,,,,,,,,,,,,,,,,,,,,,,,,,,,,,,,,,,,,,,,,,,,,,,,,,,,,,,,,,,,,,,,,,,,,,c,1,0.584,,,,,,,,106,4,reversal_N_P,ﾌ,ｼ,right,r,c,Stimuli/Encoding/Bird_Toucan.jpg,10,1,pos,B,,,,,0,105,105,105,1,,,,,,,,,,,,,,,,,
,,11,001,2023-05-04_10h03.28.821,Experiment_Tuerk,2022.2.4,Win32,60.38647343,,,,,,,,,,,,,,,,,,,,,,,,,,,,,,,,,,,,,,,,,,,,,,,,,,,,,,,,,,,,,,,,,,,,,,,,,,,,,,,,,,,,,,,,,,,,,,,,,,,,,,,,,,,,,,,,,,c,1,0.485,,,,,,,,107,4,reversal_N_P,ﾌ,ｼ,right,nr,c,Stimuli/Encoding/Acorn.jpg,11,0,pos,B,,,,,0,106,106,106,1,,,,,,,,,,,,,,,,,
,,11,001,2023-05-04_10h03.28.821,Experiment_Tuerk,2022.2.4,Win32,60.38647343,,,,,,,,,,,,,,,,,,,,,,,,,,,,,,,,,,,,,,,,,,,,,,,,,,,,,,,,,,,,,,,,,,,,,,,,,,,,,,,,,,,,,,,,,,,,,,,,,,,,,,,,,,,,,,,,,,m,0,0.376,,,,,,,,108,4,reversal_N_P,ﾌ,ｼ,right,r,c,Stimuli/Encoding/Toy_LambPlushie.jpg,12,1,pos,B,,,,,0,107,107,107,1,,,,,,,,,,,,,,,,,
,,11,001,2023-05-04_10h03.28.821,Experiment_Tuerk,2022.2.4,Win32,60.38647343,,,,,,,,,,,,,,,,,,,,,,,,,,,,,,,,,,,,,,,,,,,,,,,,,,,,,,,,,,,,,,,,,,,,,,,,,,,,,,,,,,,,,,,,,,,,,,,,,,,,,,,,,,,,,,,,,,m,1,0.454,,,,,,,,109,4,reversal_N_P,ｼ,ﾌ,right,nr,m,Stimuli/Encoding/Handbag.jpg,13,1,pos,B,,,,,0,108,108,108,1,,,,,,,,,,,,,,,,,
,,11,001,2023-05-04_10h03.28.821,Experiment_Tuerk,2022.2.4,Win32,60.38647343,,,,,,,,,,,,,,,,,,,,,,,,,,,,,,,,,,,,,,,,,,,,,,,,,,,,,,,,,,,,,,,,,,,,,,,,,,,,,,,,,,,,,,,,,,,,,,,,,,,,,,,,,,,,,,,,,,c,1,0.849,,,,,,,,110,4,reversal_N_P,ﾌ,ｼ,right,r,c,Stimuli/Encoding/BicycleSeat.jpg,14,1,pos,B,,,,,0,109,109,109,1,,,,,,,,,,,,,,,,,
,,11,001,2023-05-04_10h03.28.821,Experiment_Tuerk,2022.2.4,Win32,60.38647343,,,,,,,,,,,,,,,,,,,,,,,,,,,,,,,,,,,,,,,,,,,,,,,,,,,,,,,,,,,,,,,,,,,,,,,,,,,,,,,,,,,,,,,,,,,,,,,,,,,,,,,,,,,,,,,,,,m,1,0.432,,,,,,,,111,4,reversal_N_P,ﾌ,ｼ,left,nr,m,Stimuli/Encoding/Barrel_Wine.jpg,15,1,pos,B,,,,,0,110,110,110,1,,,,,,,,,,,,,,,,,
,,11,001,2023-05-04_10h03.28.821,Experiment_Tuerk,2022.2.4,Win32,60.38647343,,,,,,,,,,,,,,,,,,,,,,,,,,,,,,,,,,,,,,,,,,,,,,,,,,,,,,,,,,,,,,,,,,,,,,,,,,,,,,,,,,,,,,,,,,,,,,,,,,,,,,,,,,,,,,,,,,c,1,0.37,,,,,,,,112,4,reversal_N_P,ｼ,ﾌ,left,r,c,Stimuli/Encoding/Boat_Dinghy.jpg,16,1,pos,B,,,,,0,111,111,111,1,,,,,,,,,,,,,,,,,
,,11,001,2023-05-04_10h03.28.821,Experiment_Tuerk,2022.2.4,Win32,60.38647343,,,,,,,,,,,,,,,,,,,,,,,,,,,,,,,,,,,,,,,,,,,,,,,,,,,,,,,,,,,,,,,,,,,,,,,,,,,,,,,,,,,,,,,,,,,,,,,,,,,,,,,,,,,,,,,,,,m,1,0.554,,,,,,,,113,4,reversal_N_P,ﾌ,ｼ,left,nr,m,Stimuli/Encoding/Ball_Disco.jpg,17,1,pos,B,,,,,0,112,112,112,1,,,,,,,,,,,,,,,,,
,,11,001,2023-05-04_10h03.28.821,Experiment_Tuerk,2022.2.4,Win32,60.38647343,,,,,,,,,,,,,,,,,,,,,,,,,,,,,,,,,,,,,,,,,,,,,,,,,,,,,,,,,,,,,,,,,,,,,,,,,,,,,,,,,,,,,,,,,,,,,,,,,,,,,,,,,,,,,,,,,,c,1,0.394,,,,,,,,114,4,reversal_N_P,ﾌ,ｼ,right,nr,c,Stimuli/Encoding/Dog_SaintBernard.jpg,18,0,pos,B,,,,,0,113,113,113,1,,,,,,,,,,,,,,,,,
,,11,001,2023-05-04_10h03.28.821,Experiment_Tuerk,2022.2.4,Win32,60.38647343,,,,,,,,,,,,,,,,,,,,,,,,,,,,,,,,,,,,,,,,,,,,,,,,,,,,,,,,,,,,,,,,,,,,,,,,,,,,,,,,,,,,,,,,,,,,,,,,,,,,,,,,,,,,,,,,,,c,0,0.534,,,,,,,,115,4,reversal_N_P,ｼ,ﾌ,right,nr,m,Stimuli/Encoding/Hotdog_Weiner.jpg,19,1,pos,B,,,,,0,114,114,114,1,,,,,,,,,,,,,,,,,
,,11,001,2023-05-04_10h03.28.821,Experiment_Tuerk,2022.2.4,Win32,60.38647343,,,,,,,,,,,,,,,,,,,,,,,,,,,,,,,,,,,,,,,,,,,,,,,,,,,,,,,,,,,,,,,,,,,,,,,,,,,,,,,,,,,,,,,,,,,,,,,,,,,,,,,,,,,,,,,,,,m,1,0.534,,,,,,,,116,4,reversal_N_P,ﾌ,ｼ,left,nr,m,Stimuli/Encoding/Hedgehog.jpg,20,1,pos,B,,,,,0,115,115,115,1,,,,,,,,,,,,,,,,,
,,11,001,2023-05-04_10h03.28.821,Experiment_Tuerk,2022.2.4,Win32,60.38647343,,,,,,,,,,,,,,,,,,,,,,,,,,,,,,,,,,,,,,,,,,,,,,,,,,,,,,,,,,,,,,,,,,,,,,,,,,,,,,,,,,,,,,,,,,,,,,,,,,,,,,,,,,,,,,,,,,c,1,0.374,,,,,,,,117,4,reversal_N_P,ﾌ,ｼ,right,r,c,Stimuli/Encoding/Inukshuk.jpg,21,1,pos,B,,,,,0,116,116,116,1,,,,,,,,,,,,,,,,,
,,11,001,2023-05-04_10h03.28.821,Experiment_Tuerk,2022.2.4,Win32,60.38647343,,,,,,,,,,,,,,,,,,,,,,,,,,,,,,,,,,,,,,,,,,,,,,,,,,,,,,,,,,,,,,,,,,,,,,,,,,,,,,,,,,,,,,,,,,,,,,,,,,,,,,,,,,,,,,,,,,m,1,0.485,,,,,,,,118,4,reversal_N_P,ｼ,ﾌ,right,r,m,Stimuli/Encoding/Socks_Baby.jpg,22,0,pos,B,,,,,0,117,117,117,1,,,,,,,,,,,,,,,,,
,,11,001,2023-05-04_10h03.28.821,Experiment_Tuerk,2022.2.4,Win32,60.38647343,,,,,,,,,,,,,,,,,,,,,,,,,,,,,,,,,,,,,,,,,,,,,,,,,,,,,,,,,,,,,,,,,,,,,,,,,,,,,,,,,,,,,,,,,,,,,,,,,,,,,,,,,,,,,,,,,,c,0,0.361,,,,,,,,119,4,reversal_N_P,ｼ,ﾌ,right,r,m,Stimuli/Encoding/Flute_Wooden.jpg,23,0,pos,B,,,,,0,118,118,118,1,,,,,,,,,,,,,,,,,
,,11,001,2023-05-04_10h03.28.821,Experiment_Tuerk,2022.2.4,Win32,60.38647343,,,,,,,,,,,,,,,,,,,,,,,,,,,,,,,,,,,,,,,,,,,,,,,,,,,,,,,,,,,,,,,,,,,,,,,,,,,,,,,,,,,,,,,,,,,,,,,,,,,,,,,,,,,,,,,,,,m,0,0.349,,,,,,,,120,4,reversal_N_P,ｼ,ﾌ,left,r,c,Stimuli/Encoding/Neckrest.jpg,24,1,pos,B,,,,,0,119,119,119,1,,,,,,,,,,,,,,,,,
