key_resp_beginning.keys,key_resp_beginning.rt,participant,session,date,expName,psychopyVersion,OS,frameRate,key_resp_instr_behavior.keys,key_resp_instr_behavior.rt,key_resp_instr_scales.keys,key_resp_instr_scales.rt,key_resp.keys,key_resp.rt,key_resp_instr_STAI_state_2.keys,key_resp_instr_STAI_state_2.rt,key_resp_STAI_state_test.keys,key_resp_STAI_state_test.rt,trials_STAI_state.thisRepN,trials_STAI_state.thisTrialN,trials_STAI_state.thisN,trials_STAI_state.thisIndex,trials_STAI_state.ran,text_STAI_state,control_STAI_state,Item_nr_STAI_state,rescore_STAI_state,key_resp_STAI_2.keys,key_resp_STAI_2.rt,key_resp_STAI_trait_test.keys,key_resp_STAI_trait_test.rt,trials_STAI_trait.thisRepN,trials_STAI_trait.thisTrialN,trials_STAI_trait.thisN,trials_STAI_trait.thisIndex,trials_STAI_trait.ran,text_STAI_trait,control_STAI_trait,Item_nr_STAI_trait,rescore_STAI_trait,STAILoop.thisRepN,STAILoop.thisTrialN,STAILoop.thisN,STAILoop.thisIndex,STAILoop.ran,OrderofScales.thisRepN,OrderofScales.thisTrialN,OrderofScales.thisN,OrderofScales.thisIndex,OrderofScales.ran,nRepsPANAS,nRepsBDI,nRepsSHAPS,nRepsSTAI,key_resp_PANAS_1.keys,key_resp_PANAS_1.rt,key_resp_PANAS_test.keys,key_resp_PANAS_test.rt,trials_PANAS.thisRepN,trials_PANAS.thisTrialN,trials_PANAS.thisN,trials_PANAS.thisIndex,trials_PANAS.ran,adjective,posneg,panasnum,PANASLoop.thisRepN,PANASLoop.thisTrialN,PANASLoop.thisN,PANASLoop.thisIndex,PANASLoop.ran,key_resp_Instr_SHAPS.keys,key_resp_Instr_SHAPS.rt,key_resp_SHAPS_test.keys,trials_SHAPS.thisRepN,trials_SHAPS.thisTrialN,trials_SHAPS.thisN,trials_SHAPS.thisIndex,trials_SHAPS.ran,statement_SHAPS,control_SHAPS,Item_nr_SHAPS,SHAPSLoop.thisRepN,SHAPSLoop.thisTrialN,SHAPSLoop.thisN,SHAPSLoop.thisIndex,SHAPSLoop.ran,key_resp_BDI_1.keys,key_resp_BDI_1.rt,key_resp_BDI_2.keys,key_resp_BDI_2.rt,key_resp_BDI_trials.keys,key_resp_BDI_trials.rt,trials_BDI.thisRepN,trials_BDI.thisTrialN,trials_BDI.thisN,trials_BDI.thisIndex,trials_BDI.ran,Title_BDI,statement_1_BDI,statement_2_BDI,statement_3_BDI,statement_4_BDI,BDILoop.thisRepN,BDILoop.thisTrialN,BDILoop.thisN,BDILoop.thisIndex,BDILoop.ran,key_resp_instr_Social_media_scale.keys,key_resp_instr_Social_media_scale.rt,key_resp_Social_media_scale_test.keys,key_resp_Social_media_scale_test.rt,Social_media_loop.thisRepN,Social_media_loop.thisTrialN,Social_media_loop.thisN,Social_media_loop.thisIndex,Social_media_loop.ran,Social_media_statement,Item_nr,key_resp_instr_1.keys,key_resp_instr_1.rt,key_resp_instr_2.keys,key_resp_instr_2.rt,key_resp_instr_3.keys,key_resp_instr_3.rt,key_resp_instr_4.keys,key_resp_instr_4.rt,key_resp_instr_5.keys,key_resp_instr_5.rt,key_resp_instr_6.keys,key_resp_instr_6.rt,key_resp_instr_7.keys,key_resp_instr_7.rt,key_resp_instr_8.keys,key_resp_instr_8.rt,key_resp_instr_9.keys,key_resp_instr_9.rt,key_resp_instr_practice.keys,key_resp_instr_practice.rt,key_resp_trial.keys,key_resp_trial.corr,key_resp_trial.rt,key_resp_repeat_practice.keys,key_resp_end_experiment.keys,Practice_A.thisRepN,Practice_A.thisTrialN,Practice_A.thisN,Practice_A.thisIndex,Practice_A.ran,Trial_nr,Block_nr,Block_cond,Symbol_left,Symbol_right,Highlighted,Outcome,corrAns,Image,Trial_within_block,Trial_cond,Block_value,key_ass,answer_left,answer_right,key_resp_repeat_practice.rt,Group_A.thisRepN,Group_A.thisTrialN,Group_A.thisN,Group_A.thisIndex,Group_A.ran,Group_A.order,Practice_A.order
space,98.8412,26,001,2023-09-27_12h40.25.870,Experiment_Tuerk,2022.2.4,Win32,20.00080003,,,,,,,,,,,,,,,,,,,,,,,,,,,,,,,,,,,,,,,,,,,,,,,,,,,,,,,,,,,,,,,,,,,,,,,,,,,,,,,,,,,,,,,,,,,,,,,,,,,,,,,,,,,,,,,,,,,,,,,,,,,,,,,,,,,,,,,,,,,,,,,,,,,,,,,,,,,,,,,,,,,,
,,26,001,2023-09-27_12h40.25.870,Experiment_Tuerk,2022.2.4,Win32,20.00080003,space,26.5177,,,,,,,,,,,,,,,,,,,,,,,,,,,,,,,,,,,,,,,,,,,,,,,,,,,,,,,,,,,,,,,,,,,,,,,,,,,,,,,,,,,,,,,,,,,,,,,,,,,,,,,,,,,,,,,,,,,,,,,,,,,,,,,,,,,,,,,,,,,,,,,,,,,,,,,,,,,,,,,,,,
,,26,001,2023-09-27_12h40.25.870,Experiment_Tuerk,2022.2.4,Win32,20.00080003,,,space,7.438,,,,,,,,,,,,,,,,,,,,,,,,,,,,,,,,,,,,,,,,,,,,,,,,,,,,,,,,,,,,,,,,,,,,,,,,,,,,,,,,,,,,,,,,,,,,,,,,,,,,,,,,,,,,,,,,,,,,,,,,,,,,,,,,,,,,,,,,,,,,,,,,,,,,,,,,,,,,,,,,
,,26,001,2023-09-27_12h40.25.870,Experiment_Tuerk,2022.2.4,Win32,20.00080003,,,,,space,20.5502,space,16.7074,4,18.69,0,0,0,0,1,1. I feel calm.,0,1,1,,,,,,,,,,,,,,,,,,,,,,,,,,,,,,,,,,,,,,,,,,,,,,,,,,,,,,,,,,,,,,,,,,,,,,,,,,,,,,,,,,,,,,,,,,,,,,,,,,,,,,,,,,,,,,,,,,,,,,,,,,,,,,,,,,,,,,,,,,,,,,,,,
,,26,001,2023-09-27_12h40.25.870,Experiment_Tuerk,2022.2.4,Win32,20.00080003,,,,,,,,,4,2.0384,0,1,1,1,1,2. I feel secure.,0,2,1,,,,,,,,,,,,,,,,,,,,,,,,,,,,,,,,,,,,,,,,,,,,,,,,,,,,,,,,,,,,,,,,,,,,,,,,,,,,,,,,,,,,,,,,,,,,,,,,,,,,,,,,,,,,,,,,,,,,,,,,,,,,,,,,,,,,,,,,,,,,,,,,,
,,26,001,2023-09-27_12h40.25.870,Experiment_Tuerk,2022.2.4,Win32,20.00080003,,,,,,,,,1,3.3151,0,2,2,2,1,3. I am tense.,0,3,0,,,,,,,,,,,,,,,,,,,,,,,,,,,,,,,,,,,,,,,,,,,,,,,,,,,,,,,,,,,,,,,,,,,,,,,,,,,,,,,,,,,,,,,,,,,,,,,,,,,,,,,,,,,,,,,,,,,,,,,,,,,,,,,,,,,,,,,,,,,,,,,,,
,,26,001,2023-09-27_12h40.25.870,Experiment_Tuerk,2022.2.4,Win32,20.00080003,,,,,,,,,1,1.8642,0,3,3,3,1,4. I feel strained. ,0,4,0,,,,,,,,,,,,,,,,,,,,,,,,,,,,,,,,,,,,,,,,,,,,,,,,,,,,,,,,,,,,,,,,,,,,,,,,,,,,,,,,,,,,,,,,,,,,,,,,,,,,,,,,,,,,,,,,,,,,,,,,,,,,,,,,,,,,,,,,,,,,,,,,,
,,26,001,2023-09-27_12h40.25.870,Experiment_Tuerk,2022.2.4,Win32,20.00080003,,,,,,,,,4,2.4852,0,4,4,4,1,5. I feel at ease.,0,5,1,,,,,,,,,,,,,,,,,,,,,,,,,,,,,,,,,,,,,,,,,,,,,,,,,,,,,,,,,,,,,,,,,,,,,,,,,,,,,,,,,,,,,,,,,,,,,,,,,,,,,,,,,,,,,,,,,,,,,,,,,,,,,,,,,,,,,,,,,,,,,,,,,
,,26,001,2023-09-27_12h40.25.870,Experiment_Tuerk,2022.2.4,Win32,20.00080003,,,,,,,,,1,2.3571,0,5,5,5,1,6. I feel upset.,0,6,0,,,,,,,,,,,,,,,,,,,,,,,,,,,,,,,,,,,,,,,,,,,,,,,,,,,,,,,,,,,,,,,,,,,,,,,,,,,,,,,,,,,,,,,,,,,,,,,,,,,,,,,,,,,,,,,,,,,,,,,,,,,,,,,,,,,,,,,,,,,,,,,,,
,,26,001,2023-09-27_12h40.25.870,Experiment_Tuerk,2022.2.4,Win32,20.00080003,,,,,,,,,2,9.3875,0,6,6,6,1,7. I am presently worrying over possible misfortunes.,0,7,0,,,,,,,,,,,,,,,,,,,,,,,,,,,,,,,,,,,,,,,,,,,,,,,,,,,,,,,,,,,,,,,,,,,,,,,,,,,,,,,,,,,,,,,,,,,,,,,,,,,,,,,,,,,,,,,,,,,,,,,,,,,,,,,,,,,,,,,,,,,,,,,,,
,,26,001,2023-09-27_12h40.25.870,Experiment_Tuerk,2022.2.4,Win32,20.00080003,,,,,,,,,2,2.752,0,7,7,7,1,8. I feel satisfied.,0,8,1,,,,,,,,,,,,,,,,,,,,,,,,,,,,,,,,,,,,,,,,,,,,,,,,,,,,,,,,,,,,,,,,,,,,,,,,,,,,,,,,,,,,,,,,,,,,,,,,,,,,,,,,,,,,,,,,,,,,,,,,,,,,,,,,,,,,,,,,,,,,,,,,,
,,26,001,2023-09-27_12h40.25.870,Experiment_Tuerk,2022.2.4,Win32,20.00080003,,,,,,,,,1,1.6015,0,8,8,8,1,9. I feel frightened.,0,9,0,,,,,,,,,,,,,,,,,,,,,,,,,,,,,,,,,,,,,,,,,,,,,,,,,,,,,,,,,,,,,,,,,,,,,,,,,,,,,,,,,,,,,,,,,,,,,,,,,,,,,,,,,,,,,,,,,,,,,,,,,,,,,,,,,,,,,,,,,,,,,,,,,
,,26,001,2023-09-27_12h40.25.870,Experiment_Tuerk,2022.2.4,Win32,20.00080003,,,,,,,,,2,1.5578,0,9,9,9,1,10. I feel comfortable.,0,10,1,,,,,,,,,,,,,,,,,,,,,,,,,,,,,,,,,,,,,,,,,,,,,,,,,,,,,,,,,,,,,,,,,,,,,,,,,,,,,,,,,,,,,,,,,,,,,,,,,,,,,,,,,,,,,,,,,,,,,,,,,,,,,,,,,,,,,,,,,,,,,,,,,
,,26,001,2023-09-27_12h40.25.870,Experiment_Tuerk,2022.2.4,Win32,20.00080003,,,,,,,,,3,2.4837,0,10,10,10,1,11. I feel self-confident.,0,11,1,,,,,,,,,,,,,,,,,,,,,,,,,,,,,,,,,,,,,,,,,,,,,,,,,,,,,,,,,,,,,,,,,,,,,,,,,,,,,,,,,,,,,,,,,,,,,,,,,,,,,,,,,,,,,,,,,,,,,,,,,,,,,,,,,,,,,,,,,,,,,,,,,
,,26,001,2023-09-27_12h40.25.870,Experiment_Tuerk,2022.2.4,Win32,20.00080003,,,,,,,,,1,2.1803,0,11,11,11,1,12. I feel nervous.,0,12,0,,,,,,,,,,,,,,,,,,,,,,,,,,,,,,,,,,,,,,,,,,,,,,,,,,,,,,,,,,,,,,,,,,,,,,,,,,,,,,,,,,,,,,,,,,,,,,,,,,,,,,,,,,,,,,,,,,,,,,,,,,,,,,,,,,,,,,,,,,,,,,,,,
,,26,001,2023-09-27_12h40.25.870,Experiment_Tuerk,2022.2.4,Win32,20.00080003,,,,,,,,,1,1.9506,0,12,12,12,1,13. I am jittery.,0,13,0,,,,,,,,,,,,,,,,,,,,,,,,,,,,,,,,,,,,,,,,,,,,,,,,,,,,,,,,,,,,,,,,,,,,,,,,,,,,,,,,,,,,,,,,,,,,,,,,,,,,,,,,,,,,,,,,,,,,,,,,,,,,,,,,,,,,,,,,,,,,,,,,,
,,26,001,2023-09-27_12h40.25.870,Experiment_Tuerk,2022.2.4,Win32,20.00080003,,,,,,,,,1,1.8235,0,13,13,13,1,14. I feel indecisive.,0,14,0,,,,,,,,,,,,,,,,,,,,,,,,,,,,,,,,,,,,,,,,,,,,,,,,,,,,,,,,,,,,,,,,,,,,,,,,,,,,,,,,,,,,,,,,,,,,,,,,,,,,,,,,,,,,,,,,,,,,,,,,,,,,,,,,,,,,,,,,,,,,,,,,,
,,26,001,2023-09-27_12h40.25.870,Experiment_Tuerk,2022.2.4,Win32,20.00080003,,,,,,,,,1,1.6278,0,14,14,14,1,15. I don't feel calm.,1,0,99,,,,,,,,,,,,,,,,,,,,,,,,,,,,,,,,,,,,,,,,,,,,,,,,,,,,,,,,,,,,,,,,,,,,,,,,,,,,,,,,,,,,,,,,,,,,,,,,,,,,,,,,,,,,,,,,,,,,,,,,,,,,,,,,,,,,,,,,,,,,,,,,,
,,26,001,2023-09-27_12h40.25.870,Experiment_Tuerk,2022.2.4,Win32,20.00080003,,,,,,,,,3,4.4571,0,15,15,15,1,16. I am relaxed.,0,15,1,,,,,,,,,,,,,,,,,,,,,,,,,,,,,,,,,,,,,,,,,,,,,,,,,,,,,,,,,,,,,,,,,,,,,,,,,,,,,,,,,,,,,,,,,,,,,,,,,,,,,,,,,,,,,,,,,,,,,,,,,,,,,,,,,,,,,,,,,,,,,,,,,
,,26,001,2023-09-27_12h40.25.870,Experiment_Tuerk,2022.2.4,Win32,20.00080003,,,,,,,,,2,2.9661,0,16,16,16,1,17. I feel content.,0,16,1,,,,,,,,,,,,,,,,,,,,,,,,,,,,,,,,,,,,,,,,,,,,,,,,,,,,,,,,,,,,,,,,,,,,,,,,,,,,,,,,,,,,,,,,,,,,,,,,,,,,,,,,,,,,,,,,,,,,,,,,,,,,,,,,,,,,,,,,,,,,,,,,,
,,26,001,2023-09-27_12h40.25.870,Experiment_Tuerk,2022.2.4,Win32,20.00080003,,,,,,,,,1,1.3342,0,17,17,17,1,18. I am worried.,0,17,0,,,,,,,,,,,,,,,,,,,,,,,,,,,,,,,,,,,,,,,,,,,,,,,,,,,,,,,,,,,,,,,,,,,,,,,,,,,,,,,,,,,,,,,,,,,,,,,,,,,,,,,,,,,,,,,,,,,,,,,,,,,,,,,,,,,,,,,,,,,,,,,,,
,,26,001,2023-09-27_12h40.25.870,Experiment_Tuerk,2022.2.4,Win32,20.00080003,,,,,,,,,1,2.6021,0,18,18,18,1,19. I feel confused.,0,18,0,,,,,,,,,,,,,,,,,,,,,,,,,,,,,,,,,,,,,,,,,,,,,,,,,,,,,,,,,,,,,,,,,,,,,,,,,,,,,,,,,,,,,,,,,,,,,,,,,,,,,,,,,,,,,,,,,,,,,,,,,,,,,,,,,,,,,,,,,,,,,,,,,
,,26,001,2023-09-27_12h40.25.870,Experiment_Tuerk,2022.2.4,Win32,20.00080003,,,,,,,,,1,3.7084,0,19,19,19,1,20. I don't feel upset.,1,0,99,,,,,,,,,,,,,,,,,,,,,,,,,,,,,,,,,,,,,,,,,,,,,,,,,,,,,,,,,,,,,,,,,,,,,,,,,,,,,,,,,,,,,,,,,,,,,,,,,,,,,,,,,,,,,,,,,,,,,,,,,,,,,,,,,,,,,,,,,,,,,,,,,
,,26,001,2023-09-27_12h40.25.870,Experiment_Tuerk,2022.2.4,Win32,20.00080003,,,,,,,,,3,2.6001,0,20,20,20,1,21. I feel steady.,0,19,1,,,,,,,,,,,,,,,,,,,,,,,,,,,,,,,,,,,,,,,,,,,,,,,,,,,,,,,,,,,,,,,,,,,,,,,,,,,,,,,,,,,,,,,,,,,,,,,,,,,,,,,,,,,,,,,,,,,,,,,,,,,,,,,,,,,,,,,,,,,,,,,,,
,,26,001,2023-09-27_12h40.25.870,Experiment_Tuerk,2022.2.4,Win32,20.00080003,,,,,,,,,3,1.6683,0,21,21,21,1,22. I feel pleasant.,0,20,1,,,,,,,,,,,,,,,,,,,,,,,,,,,,,,,,,,,,,,,,,,,,,,,,,,,,,,,,,,,,,,,,,,,,,,,,,,,,,,,,,,,,,,,,,,,,,,,,,,,,,,,,,,,,,,,,,,,,,,,,,,,,,,,,,,,,,,,,,,,,,,,,,
,,26,001,2023-09-27_12h40.25.870,Experiment_Tuerk,2022.2.4,Win32,20.00080003,,,,,,,,,,,,,,,,,,,,space,17.0246,1,19.3022,0,0,0,0,1,21. I feel pleasant.,0,21,1,,,,,,,,,,,,,,,,,,,,,,,,,,,,,,,,,,,,,,,,,,,,,,,,,,,,,,,,,,,,,,,,,,,,,,,,,,,,,,,,,,,,,,,,,,,,,,,,,,,,,,,,,,,,,,,,,,,,,,,,,,,,,,,,,,,,
,,26,001,2023-09-27_12h40.25.870,Experiment_Tuerk,2022.2.4,Win32,20.00080003,,,,,,,,,,,,,,,,,,,,,,1,3.9102,0,1,1,1,1,22. I feel nervous and restless.,0,22,0,,,,,,,,,,,,,,,,,,,,,,,,,,,,,,,,,,,,,,,,,,,,,,,,,,,,,,,,,,,,,,,,,,,,,,,,,,,,,,,,,,,,,,,,,,,,,,,,,,,,,,,,,,,,,,,,,,,,,,,,,,,,,,,,,,,,
,,26,001,2023-09-27_12h40.25.870,Experiment_Tuerk,2022.2.4,Win32,20.00080003,,,,,,,,,,,,,,,,,,,,,,2,3.2166,0,2,2,2,1,23. I feel satisfied with myself.,0,23,1,,,,,,,,,,,,,,,,,,,,,,,,,,,,,,,,,,,,,,,,,,,,,,,,,,,,,,,,,,,,,,,,,,,,,,,,,,,,,,,,,,,,,,,,,,,,,,,,,,,,,,,,,,,,,,,,,,,,,,,,,,,,,,,,,,,,
,,26,001,2023-09-27_12h40.25.870,Experiment_Tuerk,2022.2.4,Win32,20.00080003,,,,,,,,,,,,,,,,,,,,,,2,5.4408,0,3,3,3,1,24. I wish I could be as happy as others seem to be.,0,24,0,,,,,,,,,,,,,,,,,,,,,,,,,,,,,,,,,,,,,,,,,,,,,,,,,,,,,,,,,,,,,,,,,,,,,,,,,,,,,,,,,,,,,,,,,,,,,,,,,,,,,,,,,,,,,,,,,,,,,,,,,,,,,,,,,,,,
,,26,001,2023-09-27_12h40.25.870,Experiment_Tuerk,2022.2.4,Win32,20.00080003,,,,,,,,,,,,,,,,,,,,,,2,8.3304,0,4,4,4,1,25. I feel like a failure.,0,25,0,,,,,,,,,,,,,,,,,,,,,,,,,,,,,,,,,,,,,,,,,,,,,,,,,,,,,,,,,,,,,,,,,,,,,,,,,,,,,,,,,,,,,,,,,,,,,,,,,,,,,,,,,,,,,,,,,,,,,,,,,,,,,,,,,,,,
,,26,001,2023-09-27_12h40.25.870,Experiment_Tuerk,2022.2.4,Win32,20.00080003,,,,,,,,,,,,,,,,,,,,,,3,13.5549,0,5,5,5,1,26. I feel rested.,0,26,1,,,,,,,,,,,,,,,,,,,,,,,,,,,,,,,,,,,,,,,,,,,,,,,,,,,,,,,,,,,,,,,,,,,,,,,,,,,,,,,,,,,,,,,,,,,,,,,,,,,,,,,,,,,,,,,,,,,,,,,,,,,,,,,,,,,,
,,26,001,2023-09-27_12h40.25.870,Experiment_Tuerk,2022.2.4,Win32,20.00080003,,,,,,,,,,,,,,,,,,,,,,3,3.7168,0,6,6,6,1,"27. I am ""calm, cool, and collected"".",0,27,1,,,,,,,,,,,,,,,,,,,,,,,,,,,,,,,,,,,,,,,,,,,,,,,,,,,,,,,,,,,,,,,,,,,,,,,,,,,,,,,,,,,,,,,,,,,,,,,,,,,,,,,,,,,,,,,,,,,,,,,,,,,,,,,,,,,,
,,26,001,2023-09-27_12h40.25.870,Experiment_Tuerk,2022.2.4,Win32,20.00080003,,,,,,,,,,,,,,,,,,,,,,1,6.3733,0,7,7,7,1,28. I feel that difficulties are piling up so that I cannot overcome them.,0,28,0,,,,,,,,,,,,,,,,,,,,,,,,,,,,,,,,,,,,,,,,,,,,,,,,,,,,,,,,,,,,,,,,,,,,,,,,,,,,,,,,,,,,,,,,,,,,,,,,,,,,,,,,,,,,,,,,,,,,,,,,,,,,,,,,,,,,
,,26,001,2023-09-27_12h40.25.870,Experiment_Tuerk,2022.2.4,Win32,20.00080003,,,,,,,,,,,,,,,,,,,,,,4,7.4198,0,8,8,8,1,"29. If you are still paying attention to the test, please press the number four.",1,0,99,,,,,,,,,,,,,,,,,,,,,,,,,,,,,,,,,,,,,,,,,,,,,,,,,,,,,,,,,,,,,,,,,,,,,,,,,,,,,,,,,,,,,,,,,,,,,,,,,,,,,,,,,,,,,,,,,,,,,,,,,,,,,,,,,,,,
,,26,001,2023-09-27_12h40.25.870,Experiment_Tuerk,2022.2.4,Win32,20.00080003,,,,,,,,,,,,,,,,,,,,,,1,5.787,0,9,9,9,1,30. I worry too much over something that really doesn't matter.,0,29,0,,,,,,,,,,,,,,,,,,,,,,,,,,,,,,,,,,,,,,,,,,,,,,,,,,,,,,,,,,,,,,,,,,,,,,,,,,,,,,,,,,,,,,,,,,,,,,,,,,,,,,,,,,,,,,,,,,,,,,,,,,,,,,,,,,,,
,,26,001,2023-09-27_12h40.25.870,Experiment_Tuerk,2022.2.4,Win32,20.00080003,,,,,,,,,,,,,,,,,,,,,,2,9.5482,0,10,10,10,1,31. I am happy.,0,30,1,,,,,,,,,,,,,,,,,,,,,,,,,,,,,,,,,,,,,,,,,,,,,,,,,,,,,,,,,,,,,,,,,,,,,,,,,,,,,,,,,,,,,,,,,,,,,,,,,,,,,,,,,,,,,,,,,,,,,,,,,,,,,,,,,,,,
,,26,001,2023-09-27_12h40.25.870,Experiment_Tuerk,2022.2.4,Win32,20.00080003,,,,,,,,,,,,,,,,,,,,,,2,3.1409,0,11,11,11,1,32. I have disturbing thoughts.,0,31,0,,,,,,,,,,,,,,,,,,,,,,,,,,,,,,,,,,,,,,,,,,,,,,,,,,,,,,,,,,,,,,,,,,,,,,,,,,,,,,,,,,,,,,,,,,,,,,,,,,,,,,,,,,,,,,,,,,,,,,,,,,,,,,,,,,,,
,,26,001,2023-09-27_12h40.25.870,Experiment_Tuerk,2022.2.4,Win32,20.00080003,,,,,,,,,,,,,,,,,,,,,,1,2.1407,0,12,12,12,1,33. I lack self-confidence.,0,32,0,,,,,,,,,,,,,,,,,,,,,,,,,,,,,,,,,,,,,,,,,,,,,,,,,,,,,,,,,,,,,,,,,,,,,,,,,,,,,,,,,,,,,,,,,,,,,,,,,,,,,,,,,,,,,,,,,,,,,,,,,,,,,,,,,,,,
,,26,001,2023-09-27_12h40.25.870,Experiment_Tuerk,2022.2.4,Win32,20.00080003,,,,,,,,,,,,,,,,,,,,,,4,1.8422,0,13,13,13,1,34. I feel secure.,0,33,1,,,,,,,,,,,,,,,,,,,,,,,,,,,,,,,,,,,,,,,,,,,,,,,,,,,,,,,,,,,,,,,,,,,,,,,,,,,,,,,,,,,,,,,,,,,,,,,,,,,,,,,,,,,,,,,,,,,,,,,,,,,,,,,,,,,,
,,26,001,2023-09-27_12h40.25.870,Experiment_Tuerk,2022.2.4,Win32,20.00080003,,,,,,,,,,,,,,,,,,,,,,2,4.715,0,14,14,14,1,35. I make decisions easily.,0,34,1,,,,,,,,,,,,,,,,,,,,,,,,,,,,,,,,,,,,,,,,,,,,,,,,,,,,,,,,,,,,,,,,,,,,,,,,,,,,,,,,,,,,,,,,,,,,,,,,,,,,,,,,,,,,,,,,,,,,,,,,,,,,,,,,,,,,
,,26,001,2023-09-27_12h40.25.870,Experiment_Tuerk,2022.2.4,Win32,20.00080003,,,,,,,,,,,,,,,,,,,,,,2,3.7408,0,15,15,15,1,36. I feel inadequate.,0,35,0,,,,,,,,,,,,,,,,,,,,,,,,,,,,,,,,,,,,,,,,,,,,,,,,,,,,,,,,,,,,,,,,,,,,,,,,,,,,,,,,,,,,,,,,,,,,,,,,,,,,,,,,,,,,,,,,,,,,,,,,,,,,,,,,,,,,
,,26,001,2023-09-27_12h40.25.870,Experiment_Tuerk,2022.2.4,Win32,20.00080003,,,,,,,,,,,,,,,,,,,,,,1,2.1749,0,16,16,16,1,37. I don't feel nervous.,1,0,99,,,,,,,,,,,,,,,,,,,,,,,,,,,,,,,,,,,,,,,,,,,,,,,,,,,,,,,,,,,,,,,,,,,,,,,,,,,,,,,,,,,,,,,,,,,,,,,,,,,,,,,,,,,,,,,,,,,,,,,,,,,,,,,,,,,,
,,26,001,2023-09-27_12h40.25.870,Experiment_Tuerk,2022.2.4,Win32,20.00080003,,,,,,,,,,,,,,,,,,,,,,3,3.8759,0,17,17,17,1,38. I am content.,0,36,1,,,,,,,,,,,,,,,,,,,,,,,,,,,,,,,,,,,,,,,,,,,,,,,,,,,,,,,,,,,,,,,,,,,,,,,,,,,,,,,,,,,,,,,,,,,,,,,,,,,,,,,,,,,,,,,,,,,,,,,,,,,,,,,,,,,,
,,26,001,2023-09-27_12h40.25.870,Experiment_Tuerk,2022.2.4,Win32,20.00080003,,,,,,,,,,,,,,,,,,,,,,2,6.2178,0,18,18,18,1,39. Some unimportant thought runs through my mind and bothers me.,0,37,0,,,,,,,,,,,,,,,,,,,,,,,,,,,,,,,,,,,,,,,,,,,,,,,,,,,,,,,,,,,,,,,,,,,,,,,,,,,,,,,,,,,,,,,,,,,,,,,,,,,,,,,,,,,,,,,,,,,,,,,,,,,,,,,,,,,,
,,26,001,2023-09-27_12h40.25.870,Experiment_Tuerk,2022.2.4,Win32,20.00080003,,,,,,,,,,,,,,,,,,,,,,2,5.669,0,19,19,19,1,40. I take disappointments so keenly that I can't put them out of my mind.,0,38,0,,,,,,,,,,,,,,,,,,,,,,,,,,,,,,,,,,,,,,,,,,,,,,,,,,,,,,,,,,,,,,,,,,,,,,,,,,,,,,,,,,,,,,,,,,,,,,,,,,,,,,,,,,,,,,,,,,,,,,,,,,,,,,,,,,,,
,,26,001,2023-09-27_12h40.25.870,Experiment_Tuerk,2022.2.4,Win32,20.00080003,,,,,,,,,,,,,,,,,,,,,,3,3.4416,0,20,20,20,1,41. I am a steady person.,0,39,1,,,,,,,,,,,,,,,,,,,,,,,,,,,,,,,,,,,,,,,,,,,,,,,,,,,,,,,,,,,,,,,,,,,,,,,,,,,,,,,,,,,,,,,,,,,,,,,,,,,,,,,,,,,,,,,,,,,,,,,,,,,,,,,,,,,,
,,26,001,2023-09-27_12h40.25.870,Experiment_Tuerk,2022.2.4,Win32,20.00080003,,,,,,,,,,,,,,,,,,,,,,2,10.6623,0,21,21,21,1,42. I get in a state of tension or turmoil as I think over my recent concerns and interests.,0,40,0,,,,,,,,,,,,,,,,,,,,,,,,,,,,,,,,,,,,,,,,,,,,,,,,,,,,,,,,,,,,,,,,,,,,,,,,,,,,,,,,,,,,,,,,,,,,,,,,,,,,,,,,,,,,,,,,,,,,,,,,,,,,,,,,,,,,
,,26,001,2023-09-27_12h40.25.870,Experiment_Tuerk,2022.2.4,Win32,20.00080003,,,,,,,,,,,,,,,,,,,,,,,,,,,,,,,,,0,0,0,0,1,,,,,,,,,,,,,,,,,,,,,,,,,,,,,,,,,,,,,,,,,,,,,,,,,,,,,,,,,,,,,,,,,,,,,,,,,,,,,,,,,,,,,,,,,,,,,,,,,,,,,,,,,,,,,,,,,,,,,,,,,,,,,,,
,,26,001,2023-09-27_12h40.25.870,Experiment_Tuerk,2022.2.4,Win32,20.00080003,,,,,,,,,,,,,,,,,,,,,,,,,,,,,,,,,,,,,,0,0,0,3,1,0,0,0,1,,,,,,,,,,,,,,,,,,,,,,,,,,,,,,,,,,,,,,,,,,,,,,,,,,,,,,,,,,,,,,,,,,,,,,,,,,,,,,,,,,,,,,,,,,,,,,,,,,,,,,,,,,,,,,,,,,,,,,
,,26,001,2023-09-27_12h40.25.870,Experiment_Tuerk,2022.2.4,Win32,20.00080003,,,,,,,,,,,,,,,,,,,,,,,,,,,,,,,,,,,,,,,,,,,,,,,space,15.9932,4,9.7306,0,0,0,0,1,interested,pos,1,,,,,,,,,,,,,,,,,,,,,,,,,,,,,,,,,,,,,,,,,,,,,,,,,,,,,,,,,,,,,,,,,,,,,,,,,,,,,,,,,,,,,,,,,,,,,,,,,,,,,,,,,,
,,26,001,2023-09-27_12h40.25.870,Experiment_Tuerk,2022.2.4,Win32,20.00080003,,,,,,,,,,,,,,,,,,,,,,,,,,,,,,,,,,,,,,,,,,,,,,,,,1,2.6228,0,1,1,1,1,distressed,neg,2,,,,,,,,,,,,,,,,,,,,,,,,,,,,,,,,,,,,,,,,,,,,,,,,,,,,,,,,,,,,,,,,,,,,,,,,,,,,,,,,,,,,,,,,,,,,,,,,,,,,,,,,,,
,,26,001,2023-09-27_12h40.25.870,Experiment_Tuerk,2022.2.4,Win32,20.00080003,,,,,,,,,,,,,,,,,,,,,,,,,,,,,,,,,,,,,,,,,,,,,,,,,3,1.8162,0,2,2,2,1,excited,pos,1,,,,,,,,,,,,,,,,,,,,,,,,,,,,,,,,,,,,,,,,,,,,,,,,,,,,,,,,,,,,,,,,,,,,,,,,,,,,,,,,,,,,,,,,,,,,,,,,,,,,,,,,,,
,,26,001,2023-09-27_12h40.25.870,Experiment_Tuerk,2022.2.4,Win32,20.00080003,,,,,,,,,,,,,,,,,,,,,,,,,,,,,,,,,,,,,,,,,,,,,,,,,1,1.5197,0,3,3,3,1,upset,neg,2,,,,,,,,,,,,,,,,,,,,,,,,,,,,,,,,,,,,,,,,,,,,,,,,,,,,,,,,,,,,,,,,,,,,,,,,,,,,,,,,,,,,,,,,,,,,,,,,,,,,,,,,,,
,,26,001,2023-09-27_12h40.25.870,Experiment_Tuerk,2022.2.4,Win32,20.00080003,,,,,,,,,,,,,,,,,,,,,,,,,,,,,,,,,,,,,,,,,,,,,,,,,4,2.1111,0,4,4,4,1,strong,pos,1,,,,,,,,,,,,,,,,,,,,,,,,,,,,,,,,,,,,,,,,,,,,,,,,,,,,,,,,,,,,,,,,,,,,,,,,,,,,,,,,,,,,,,,,,,,,,,,,,,,,,,,,,,
,,26,001,2023-09-27_12h40.25.870,Experiment_Tuerk,2022.2.4,Win32,20.00080003,,,,,,,,,,,,,,,,,,,,,,,,,,,,,,,,,,,,,,,,,,,,,,,,,1,1.5616,0,5,5,5,1,guilty,neg,2,,,,,,,,,,,,,,,,,,,,,,,,,,,,,,,,,,,,,,,,,,,,,,,,,,,,,,,,,,,,,,,,,,,,,,,,,,,,,,,,,,,,,,,,,,,,,,,,,,,,,,,,,,
,,26,001,2023-09-27_12h40.25.870,Experiment_Tuerk,2022.2.4,Win32,20.00080003,,,,,,,,,,,,,,,,,,,,,,,,,,,,,,,,,,,,,,,,,,,,,,,,,1,1.4547,0,6,6,6,1,scared,neg,2,,,,,,,,,,,,,,,,,,,,,,,,,,,,,,,,,,,,,,,,,,,,,,,,,,,,,,,,,,,,,,,,,,,,,,,,,,,,,,,,,,,,,,,,,,,,,,,,,,,,,,,,,,
,,26,001,2023-09-27_12h40.25.870,Experiment_Tuerk,2022.2.4,Win32,20.00080003,,,,,,,,,,,,,,,,,,,,,,,,,,,,,,,,,,,,,,,,,,,,,,,,,1,1.1181,0,7,7,7,1,hostile,neg,2,,,,,,,,,,,,,,,,,,,,,,,,,,,,,,,,,,,,,,,,,,,,,,,,,,,,,,,,,,,,,,,,,,,,,,,,,,,,,,,,,,,,,,,,,,,,,,,,,,,,,,,,,,
,,26,001,2023-09-27_12h40.25.870,Experiment_Tuerk,2022.2.4,Win32,20.00080003,,,,,,,,,,,,,,,,,,,,,,,,,,,,,,,,,,,,,,,,,,,,,,,,,4,2.2273,0,8,8,8,1,enthusiastic,pos,1,,,,,,,,,,,,,,,,,,,,,,,,,,,,,,,,,,,,,,,,,,,,,,,,,,,,,,,,,,,,,,,,,,,,,,,,,,,,,,,,,,,,,,,,,,,,,,,,,,,,,,,,,,
,,26,001,2023-09-27_12h40.25.870,Experiment_Tuerk,2022.2.4,Win32,20.00080003,,,,,,,,,,,,,,,,,,,,,,,,,,,,,,,,,,,,,,,,,,,,,,,,,5,2.4034,0,9,9,9,1,proud,pos,1,,,,,,,,,,,,,,,,,,,,,,,,,,,,,,,,,,,,,,,,,,,,,,,,,,,,,,,,,,,,,,,,,,,,,,,,,,,,,,,,,,,,,,,,,,,,,,,,,,,,,,,,,,
,,26,001,2023-09-27_12h40.25.870,Experiment_Tuerk,2022.2.4,Win32,20.00080003,,,,,,,,,,,,,,,,,,,,,,,,,,,,,,,,,,,,,,,,,,,,,,,,,1,7.8617,0,10,10,10,1,irritable,neg,2,,,,,,,,,,,,,,,,,,,,,,,,,,,,,,,,,,,,,,,,,,,,,,,,,,,,,,,,,,,,,,,,,,,,,,,,,,,,,,,,,,,,,,,,,,,,,,,,,,,,,,,,,,
,,26,001,2023-09-27_12h40.25.870,Experiment_Tuerk,2022.2.4,Win32,20.00080003,,,,,,,,,,,,,,,,,,,,,,,,,,,,,,,,,,,,,,,,,,,,,,,,,4,1.8851,0,11,11,11,1,alert,pos,1,,,,,,,,,,,,,,,,,,,,,,,,,,,,,,,,,,,,,,,,,,,,,,,,,,,,,,,,,,,,,,,,,,,,,,,,,,,,,,,,,,,,,,,,,,,,,,,,,,,,,,,,,,
,,26,001,2023-09-27_12h40.25.870,Experiment_Tuerk,2022.2.4,Win32,20.00080003,,,,,,,,,,,,,,,,,,,,,,,,,,,,,,,,,,,,,,,,,,,,,,,,,1,1.7903,0,12,12,12,1,ashamed,neg,2,,,,,,,,,,,,,,,,,,,,,,,,,,,,,,,,,,,,,,,,,,,,,,,,,,,,,,,,,,,,,,,,,,,,,,,,,,,,,,,,,,,,,,,,,,,,,,,,,,,,,,,,,,
,,26,001,2023-09-27_12h40.25.870,Experiment_Tuerk,2022.2.4,Win32,20.00080003,,,,,,,,,,,,,,,,,,,,,,,,,,,,,,,,,,,,,,,,,,,,,,,,,5,1.9719,0,13,13,13,1,inspired,pos,1,,,,,,,,,,,,,,,,,,,,,,,,,,,,,,,,,,,,,,,,,,,,,,,,,,,,,,,,,,,,,,,,,,,,,,,,,,,,,,,,,,,,,,,,,,,,,,,,,,,,,,,,,,
,,26,001,2023-09-27_12h40.25.870,Experiment_Tuerk,2022.2.4,Win32,20.00080003,,,,,,,,,,,,,,,,,,,,,,,,,,,,,,,,,,,,,,,,,,,,,,,,,1,1.7698,0,14,14,14,1,nervous,neg,2,,,,,,,,,,,,,,,,,,,,,,,,,,,,,,,,,,,,,,,,,,,,,,,,,,,,,,,,,,,,,,,,,,,,,,,,,,,,,,,,,,,,,,,,,,,,,,,,,,,,,,,,,,
,,26,001,2023-09-27_12h40.25.870,Experiment_Tuerk,2022.2.4,Win32,20.00080003,,,,,,,,,,,,,,,,,,,,,,,,,,,,,,,,,,,,,,,,,,,,,,,,,5,1.9627,0,15,15,15,1,determined,pos,1,,,,,,,,,,,,,,,,,,,,,,,,,,,,,,,,,,,,,,,,,,,,,,,,,,,,,,,,,,,,,,,,,,,,,,,,,,,,,,,,,,,,,,,,,,,,,,,,,,,,,,,,,,
,,26,001,2023-09-27_12h40.25.870,Experiment_Tuerk,2022.2.4,Win32,20.00080003,,,,,,,,,,,,,,,,,,,,,,,,,,,,,,,,,,,,,,,,,,,,,,,,,4,2.5061,0,16,16,16,1,attentive,pos,1,,,,,,,,,,,,,,,,,,,,,,,,,,,,,,,,,,,,,,,,,,,,,,,,,,,,,,,,,,,,,,,,,,,,,,,,,,,,,,,,,,,,,,,,,,,,,,,,,,,,,,,,,,
,,26,001,2023-09-27_12h40.25.870,Experiment_Tuerk,2022.2.4,Win32,20.00080003,,,,,,,,,,,,,,,,,,,,,,,,,,,,,,,,,,,,,,,,,,,,,,,,,1,2.226,0,17,17,17,1,jittery,neg,2,,,,,,,,,,,,,,,,,,,,,,,,,,,,,,,,,,,,,,,,,,,,,,,,,,,,,,,,,,,,,,,,,,,,,,,,,,,,,,,,,,,,,,,,,,,,,,,,,,,,,,,,,,
,,26,001,2023-09-27_12h40.25.870,Experiment_Tuerk,2022.2.4,Win32,20.00080003,,,,,,,,,,,,,,,,,,,,,,,,,,,,,,,,,,,,,,,,,,,,,,,,,4,3.9605,0,18,18,18,1,active,pos,1,,,,,,,,,,,,,,,,,,,,,,,,,,,,,,,,,,,,,,,,,,,,,,,,,,,,,,,,,,,,,,,,,,,,,,,,,,,,,,,,,,,,,,,,,,,,,,,,,,,,,,,,,,
,,26,001,2023-09-27_12h40.25.870,Experiment_Tuerk,2022.2.4,Win32,20.00080003,,,,,,,,,,,,,,,,,,,,,,,,,,,,,,,,,,,,,,,,,,,,,,,,,1,2.5971,0,19,19,19,1,afraid,neg,2,,,,,,,,,,,,,,,,,,,,,,,,,,,,,,,,,,,,,,,,,,,,,,,,,,,,,,,,,,,,,,,,,,,,,,,,,,,,,,,,,,,,,,,,,,,,,,,,,,,,,,,,,,
,,26,001,2023-09-27_12h40.25.870,Experiment_Tuerk,2022.2.4,Win32,20.00080003,,,,,,,,,,,,,,,,,,,,,,,,,,,,,,,,,,,,,,,,,,,,,,,,,,,,,,,,,,,0,0,0,0,1,,,,,,,,,,,,,,,,,,,,,,,,,,,,,,,,,,,,,,,,,,,,,,,,,,,,,,,,,,,,,,,,,,,,,,,,,,,,,,,,,,,,,,,,,,,,,,,,,,,,,
,,26,001,2023-09-27_12h40.25.870,Experiment_Tuerk,2022.2.4,Win32,20.00080003,,,,,,,,,,,,,,,,,,,,,,,,,,,,,,,,,,,,,,0,1,1,0,1,1,0,0,0,,,,,,,,,,,,,,,,,,,,,,,,,,,,,,,,,,,,,,,,,,,,,,,,,,,,,,,,,,,,,,,,,,,,,,,,,,,,,,,,,,,,,,,,,,,,,,,,,,,,,,,,,,,,,,,,,,,,,,
,,26,001,2023-09-27_12h40.25.870,Experiment_Tuerk,2022.2.4,Win32,20.00080003,,,,,,,,,,,,,,,,,,,,,,,,,,,,,,,,,,,,,,,,,,,,,,,,,,,,,,,,,,,,,,,,space,36.5523,4,0,0,0,0,1,1. I would enjoy my favourite television or radio programme: ,0,1,,,,,,,,,,,,,,,,,,,,,,,,,,,,,,,,,,,,,,,,,,,,,,,,,,,,,,,,,,,,,,,,,,,,,,,,,,,,,,,,,,,,,,,,,,
,,26,001,2023-09-27_12h40.25.870,Experiment_Tuerk,2022.2.4,Win32,20.00080003,,,,,,,,,,,,,,,,,,,,,,,,,,,,,,,,,,,,,,,,,,,,,,,,,,,,,,,,,,,,,,,,,,4,0,1,1,1,1,2. I would enjoy being with my family or close friends: ,0,2,,,,,,,,,,,,,,,,,,,,,,,,,,,,,,,,,,,,,,,,,,,,,,,,,,,,,,,,,,,,,,,,,,,,,,,,,,,,,,,,,,,,,,,,,,
,,26,001,2023-09-27_12h40.25.870,Experiment_Tuerk,2022.2.4,Win32,20.00080003,,,,,,,,,,,,,,,,,,,,,,,,,,,,,,,,,,,,,,,,,,,,,,,,,,,,,,,,,,,,,,,,,,4,0,2,2,2,1,3. I would find pleasure in my hobbies and pastime: ,0,3,,,,,,,,,,,,,,,,,,,,,,,,,,,,,,,,,,,,,,,,,,,,,,,,,,,,,,,,,,,,,,,,,,,,,,,,,,,,,,,,,,,,,,,,,,
,,26,001,2023-09-27_12h40.25.870,Experiment_Tuerk,2022.2.4,Win32,20.00080003,,,,,,,,,,,,,,,,,,,,,,,,,,,,,,,,,,,,,,,,,,,,,,,,,,,,,,,,,,,,,,,,,,2,0,3,3,3,1,4. I would not be able to enjoy small things like a sunny day or a phone call from a friend:,1,0,,,,,,,,,,,,,,,,,,,,,,,,,,,,,,,,,,,,,,,,,,,,,,,,,,,,,,,,,,,,,,,,,,,,,,,,,,,,,,,,,,,,,,,,,,
,,26,001,2023-09-27_12h40.25.870,Experiment_Tuerk,2022.2.4,Win32,20.00080003,,,,,,,,,,,,,,,,,,,,,,,,,,,,,,,,,,,,,,,,,,,,,,,,,,,,,,,,,,,,,,,,,,4,0,4,4,4,1,5. I would be able to enjoy my favourite meal:,0,4,,,,,,,,,,,,,,,,,,,,,,,,,,,,,,,,,,,,,,,,,,,,,,,,,,,,,,,,,,,,,,,,,,,,,,,,,,,,,,,,,,,,,,,,,,
,,26,001,2023-09-27_12h40.25.870,Experiment_Tuerk,2022.2.4,Win32,20.00080003,,,,,,,,,,,,,,,,,,,,,,,,,,,,,,,,,,,,,,,,,,,,,,,,,,,,,,,,,,,,,,,,,,4,0,5,5,5,1,6. I would enjoy a warm bath or refreshing shower:,0,5,,,,,,,,,,,,,,,,,,,,,,,,,,,,,,,,,,,,,,,,,,,,,,,,,,,,,,,,,,,,,,,,,,,,,,,,,,,,,,,,,,,,,,,,,,
,,26,001,2023-09-27_12h40.25.870,Experiment_Tuerk,2022.2.4,Win32,20.00080003,,,,,,,,,,,,,,,,,,,,,,,,,,,,,,,,,,,,,,,,,,,,,,,,,,,,,,,,,,,,,,,,,,4,0,6,6,6,1,7. I would find pleasure in the scent of flowers or the smell of a fresh sea breeze or freshly baked bread:,0,6,,,,,,,,,,,,,,,,,,,,,,,,,,,,,,,,,,,,,,,,,,,,,,,,,,,,,,,,,,,,,,,,,,,,,,,,,,,,,,,,,,,,,,,,,,
,,26,001,2023-09-27_12h40.25.870,Experiment_Tuerk,2022.2.4,Win32,20.00080003,,,,,,,,,,,,,,,,,,,,,,,,,,,,,,,,,,,,,,,,,,,,,,,,,,,,,,,,,,,,,,,,,,4,0,7,7,7,1,8. I would enjoy seeing other people's smiling faces:,0,7,,,,,,,,,,,,,,,,,,,,,,,,,,,,,,,,,,,,,,,,,,,,,,,,,,,,,,,,,,,,,,,,,,,,,,,,,,,,,,,,,,,,,,,,,,
,,26,001,2023-09-27_12h40.25.870,Experiment_Tuerk,2022.2.4,Win32,20.00080003,,,,,,,,,,,,,,,,,,,,,,,,,,,,,,,,,,,,,,,,,,,,,,,,,,,,,,,,,,,,,,,,,,4,0,8,8,8,1,9. I would enjoy looking smart when I have made an effort with my appearance:,0,8,,,,,,,,,,,,,,,,,,,,,,,,,,,,,,,,,,,,,,,,,,,,,,,,,,,,,,,,,,,,,,,,,,,,,,,,,,,,,,,,,,,,,,,,,,
,,26,001,2023-09-27_12h40.25.870,Experiment_Tuerk,2022.2.4,Win32,20.00080003,,,,,,,,,,,,,,,,,,,,,,,,,,,,,,,,,,,,,,,,,,,,,,,,,,,,,,,,,,,,,,,,,,4,0,9,9,9,1,"10. I would enjoy reading a book, magazine or newspaper:",0,9,,,,,,,,,,,,,,,,,,,,,,,,,,,,,,,,,,,,,,,,,,,,,,,,,,,,,,,,,,,,,,,,,,,,,,,,,,,,,,,,,,,,,,,,,,
,,26,001,2023-09-27_12h40.25.870,Experiment_Tuerk,2022.2.4,Win32,20.00080003,,,,,,,,,,,,,,,,,,,,,,,,,,,,,,,,,,,,,,,,,,,,,,,,,,,,,,,,,,,,,,,,,,1,0,10,10,10,1,"11. If you are still attentive to the test, please press the number one:",1,0,,,,,,,,,,,,,,,,,,,,,,,,,,,,,,,,,,,,,,,,,,,,,,,,,,,,,,,,,,,,,,,,,,,,,,,,,,,,,,,,,,,,,,,,,,
,,26,001,2023-09-27_12h40.25.870,Experiment_Tuerk,2022.2.4,Win32,20.00080003,,,,,,,,,,,,,,,,,,,,,,,,,,,,,,,,,,,,,,,,,,,,,,,,,,,,,,,,,,,,,,,,,,4,0,11,11,11,1,12. I would enjoy a cup of tea or coffee or my favourite drink:,0,10,,,,,,,,,,,,,,,,,,,,,,,,,,,,,,,,,,,,,,,,,,,,,,,,,,,,,,,,,,,,,,,,,,,,,,,,,,,,,,,,,,,,,,,,,,
,,26,001,2023-09-27_12h40.25.870,Experiment_Tuerk,2022.2.4,Win32,20.00080003,,,,,,,,,,,,,,,,,,,,,,,,,,,,,,,,,,,,,,,,,,,,,,,,,,,,,,,,,,,,,,,,,,4,0,12,12,12,1,"13. I would find pleasure in small things, e.g. bright sunny day, a telephone call from a friend:",0,11,,,,,,,,,,,,,,,,,,,,,,,,,,,,,,,,,,,,,,,,,,,,,,,,,,,,,,,,,,,,,,,,,,,,,,,,,,,,,,,,,,,,,,,,,,
,,26,001,2023-09-27_12h40.25.870,Experiment_Tuerk,2022.2.4,Win32,20.00080003,,,,,,,,,,,,,,,,,,,,,,,,,,,,,,,,,,,,,,,,,,,,,,,,,,,,,,,,,,,,,,,,,,4,0,13,13,13,1,14. I would be able to enjoy a beautiful landscape or view: ,0,12,,,,,,,,,,,,,,,,,,,,,,,,,,,,,,,,,,,,,,,,,,,,,,,,,,,,,,,,,,,,,,,,,,,,,,,,,,,,,,,,,,,,,,,,,,
,,26,001,2023-09-27_12h40.25.870,Experiment_Tuerk,2022.2.4,Win32,20.00080003,,,,,,,,,,,,,,,,,,,,,,,,,,,,,,,,,,,,,,,,,,,,,,,,,,,,,,,,,,,,,,,,,,1,0,14,14,14,1,15. I would not enjoy my favourite television or radio programme:,1,0,,,,,,,,,,,,,,,,,,,,,,,,,,,,,,,,,,,,,,,,,,,,,,,,,,,,,,,,,,,,,,,,,,,,,,,,,,,,,,,,,,,,,,,,,,
,,26,001,2023-09-27_12h40.25.870,Experiment_Tuerk,2022.2.4,Win32,20.00080003,,,,,,,,,,,,,,,,,,,,,,,,,,,,,,,,,,,,,,,,,,,,,,,,,,,,,,,,,,,,,,,,,,4,0,15,15,15,1,16. I would get pleasure from helping others:,0,13,,,,,,,,,,,,,,,,,,,,,,,,,,,,,,,,,,,,,,,,,,,,,,,,,,,,,,,,,,,,,,,,,,,,,,,,,,,,,,,,,,,,,,,,,,
,,26,001,2023-09-27_12h40.25.870,Experiment_Tuerk,2022.2.4,Win32,20.00080003,,,,,,,,,,,,,,,,,,,,,,,,,,,,,,,,,,,,,,,,,,,,,,,,,,,,,,,,,,,,,,,,,,2,0,16,16,16,1,17. I would feel pleasure when I receive praise from other people:,0,14,,,,,,,,,,,,,,,,,,,,,,,,,,,,,,,,,,,,,,,,,,,,,,,,,,,,,,,,,,,,,,,,,,,,,,,,,,,,,,,,,,,,,,,,,,
,,26,001,2023-09-27_12h40.25.870,Experiment_Tuerk,2022.2.4,Win32,20.00080003,,,,,,,,,,,,,,,,,,,,,,,,,,,,,,,,,,,,,,,,,,,,,,,,,,,,,,,,,,,,,,,,,,,,,,,,,,,0,0,0,0,1,,,,,,,,,,,,,,,,,,,,,,,,,,,,,,,,,,,,,,,,,,,,,,,,,,,,,,,,,,,,,,,,,,,,,,,,,,,,,,,,,,,,,
,,26,001,2023-09-27_12h40.25.870,Experiment_Tuerk,2022.2.4,Win32,20.00080003,,,,,,,,,,,,,,,,,,,,,,,,,,,,,,,,,,,,,,0,2,2,2,1,0,0,1,0,,,,,,,,,,,,,,,,,,,,,,,,,,,,,,,,,,,,,,,,,,,,,,,,,,,,,,,,,,,,,,,,,,,,,,,,,,,,,,,,,,,,,,,,,,,,,,,,,,,,,,,,,,,,,,,,,,,,,,
,,26,001,2023-09-27_12h40.25.870,Experiment_Tuerk,2022.2.4,Win32,20.00080003,,,,,,,,,,,,,,,,,,,,,,,,,,,,,,,,,,,,,,,,,,,,,,,,,,,,,,,,,,,,,,,,,,,,,,,,,,,,,,,,space,20.489,space,35.9372,0,20.246,0,0,0,0,1,1. Sadness,0-I do not feel sad.,1-I feel sad much of the time.,2-I am sad all the time.,3-I am so sad or unhappy that I can't stand it.,,,,,,,,,,,,,,,,,,,,,,,,,,,,,,,,,,,,,,,,,,,,,,,,,,,,,,,,,,,,,,,,,,,,,
,,26,001,2023-09-27_12h40.25.870,Experiment_Tuerk,2022.2.4,Win32,20.00080003,,,,,,,,,,,,,,,,,,,,,,,,,,,,,,,,,,,,,,,,,,,,,,,,,,,,,,,,,,,,,,,,,,,,,,,,,,,,,,,,,,,,0,17.7685,0,1,1,1,1,2. Pessimism,0-I am not  discouraged about my future.,1-I feel more discouraged about my future than I used to.,2-I do not expect things to work out for me.,3-I feel my future is hopeless and will only get worse.,,,,,,,,,,,,,,,,,,,,,,,,,,,,,,,,,,,,,,,,,,,,,,,,,,,,,,,,,,,,,,,,,,,,,
,,26,001,2023-09-27_12h40.25.870,Experiment_Tuerk,2022.2.4,Win32,20.00080003,,,,,,,,,,,,,,,,,,,,,,,,,,,,,,,,,,,,,,,,,,,,,,,,,,,,,,,,,,,,,,,,,,,,,,,,,,,,,,,,,,,,1,9.44,0,2,2,2,1,3. Past failure,0-I do not feel like a failure.,1-I have failed more than I should have.,"2-As I look back, I see a lot of failures.",3-I feel I am a total failure as a person.,,,,,,,,,,,,,,,,,,,,,,,,,,,,,,,,,,,,,,,,,,,,,,,,,,,,,,,,,,,,,,,,,,,,,
,,26,001,2023-09-27_12h40.25.870,Experiment_Tuerk,2022.2.4,Win32,20.00080003,,,,,,,,,,,,,,,,,,,,,,,,,,,,,,,,,,,,,,,,,,,,,,,,,,,,,,,,,,,,,,,,,,,,,,,,,,,,,,,,,,,,0,10.3479,0,3,3,3,1,4. Loss of Pleasure,0-I get as much pleasure as I ever did from the things I enjoy.,1-I don't enjoy things as much as I used to.,2-I get very little pleasure from the things I used to enjoy.,3-I can't get any pleasure from the things I used to enjoy.,,,,,,,,,,,,,,,,,,,,,,,,,,,,,,,,,,,,,,,,,,,,,,,,,,,,,,,,,,,,,,,,,,,,,
,,26,001,2023-09-27_12h40.25.870,Experiment_Tuerk,2022.2.4,Win32,20.00080003,,,,,,,,,,,,,,,,,,,,,,,,,,,,,,,,,,,,,,,,,,,,,,,,,,,,,,,,,,,,,,,,,,,,,,,,,,,,,,,,,,,,0,4.5138,0,4,4,4,1,5. Guilty feelings,0-I don't feel particularly guilty.,1-I feel guilty over many things I have done or should have done.,2-I feel quite guilty most of the time.,3-I feel guilty all of the time.,,,,,,,,,,,,,,,,,,,,,,,,,,,,,,,,,,,,,,,,,,,,,,,,,,,,,,,,,,,,,,,,,,,,,
,,26,001,2023-09-27_12h40.25.870,Experiment_Tuerk,2022.2.4,Win32,20.00080003,,,,,,,,,,,,,,,,,,,,,,,,,,,,,,,,,,,,,,,,,,,,,,,,,,,,,,,,,,,,,,,,,,,,,,,,,,,,,,,,,,,,0,3.5511,0,5,5,5,1,6. Punishment feelings,0-I don't feel I am being punished.,1-I feel I may be punished.,2-I expect to be punished.,3-I feel I am being punished.,,,,,,,,,,,,,,,,,,,,,,,,,,,,,,,,,,,,,,,,,,,,,,,,,,,,,,,,,,,,,,,,,,,,,
,,26,001,2023-09-27_12h40.25.870,Experiment_Tuerk,2022.2.4,Win32,20.00080003,,,,,,,,,,,,,,,,,,,,,,,,,,,,,,,,,,,,,,,,,,,,,,,,,,,,,,,,,,,,,,,,,,,,,,,,,,,,,,,,,,,,0,5.2948,0,6,6,6,1,7. Self-dislike,0-I feel the same about myself as ever.,1-I have lost confidence in myself.,2-I am disappointed in myself.,3-I dislike myself.,,,,,,,,,,,,,,,,,,,,,,,,,,,,,,,,,,,,,,,,,,,,,,,,,,,,,,,,,,,,,,,,,,,,,
,,26,001,2023-09-27_12h40.25.870,Experiment_Tuerk,2022.2.4,Win32,20.00080003,,,,,,,,,,,,,,,,,,,,,,,,,,,,,,,,,,,,,,,,,,,,,,,,,,,,,,,,,,,,,,,,,,,,,,,,,,,,,,,,,,,,1,8.2973,0,7,7,7,1,8. Self-criticalness,0-I don't criticize or blame myself more than usual.,1-I am more critical of myself than I used to be.,2-I criticize myself for all of my faults.,3-I blame myself for everything bad that happens.,,,,,,,,,,,,,,,,,,,,,,,,,,,,,,,,,,,,,,,,,,,,,,,,,,,,,,,,,,,,,,,,,,,,,
,,26,001,2023-09-27_12h40.25.870,Experiment_Tuerk,2022.2.4,Win32,20.00080003,,,,,,,,,,,,,,,,,,,,,,,,,,,,,,,,,,,,,,,,,,,,,,,,,,,,,,,,,,,,,,,,,,,,,,,,,,,,,,,,,,,,0,4.7278,0,8,8,8,1,9. Suicidal thoughts or wishes,0-I don't have any thoughts of killing myself.,"1-I have thoughts of killing myself, but I would not carry them out.",2-I would like to kill myself.,3-I would kill myself if I had the chance.,,,,,,,,,,,,,,,,,,,,,,,,,,,,,,,,,,,,,,,,,,,,,,,,,,,,,,,,,,,,,,,,,,,,,
,,26,001,2023-09-27_12h40.25.870,Experiment_Tuerk,2022.2.4,Win32,20.00080003,,,,,,,,,,,,,,,,,,,,,,,,,,,,,,,,,,,,,,,,,,,,,,,,,,,,,,,,,,,,,,,,,,,,,,,,,,,,,,,,,,,,0,3.0311,0,9,9,9,1,10. Crying,0-I don't cry anymore than I used to.,1-I cry more than I used to.,2-I cry over every little thing.,"3-I feel like crying, but I can't.",,,,,,,,,,,,,,,,,,,,,,,,,,,,,,,,,,,,,,,,,,,,,,,,,,,,,,,,,,,,,,,,,,,,,
,,26,001,2023-09-27_12h40.25.870,Experiment_Tuerk,2022.2.4,Win32,20.00080003,,,,,,,,,,,,,,,,,,,,,,,,,,,,,,,,,,,,,,,,,,,,,,,,,,,,,,,,,,,,,,,,,,,,,,,,,,,,,,,,,,,,0,2.6186,0,10,10,10,1,11. Agitation,0-I am no more restless or wound up than usual.,1-I feel more restless or wound up than usual.,"2-I am so restless or agitated, it's hard to stay still.",3-I am so restless or agitated that I have to keep moving or doing something.,,,,,,,,,,,,,,,,,,,,,,,,,,,,,,,,,,,,,,,,,,,,,,,,,,,,,,,,,,,,,,,,,,,,,
,,26,001,2023-09-27_12h40.25.870,Experiment_Tuerk,2022.2.4,Win32,20.00080003,,,,,,,,,,,,,,,,,,,,,,,,,,,,,,,,,,,,,,,,,,,,,,,,,,,,,,,,,,,,,,,,,,,,,,,,,,,,,,,,,,,,0,2.798,0,11,11,11,1,12. Loss of Interest,0-I have not lost interest in other people or activities.,1-I am less interested in other people or things than before.,2-I have lost most of my interest in other people or things.,3-It's hard to get interested in anything.,,,,,,,,,,,,,,,,,,,,,,,,,,,,,,,,,,,,,,,,,,,,,,,,,,,,,,,,,,,,,,,,,,,,,
,,26,001,2023-09-27_12h40.25.870,Experiment_Tuerk,2022.2.4,Win32,20.00080003,,,,,,,,,,,,,,,,,,,,,,,,,,,,,,,,,,,,,,,,,,,,,,,,,,,,,,,,,,,,,,,,,,,,,,,,,,,,,,,,,,,,0,8.125,0,12,12,12,1,13. Indecisiveness,0-I make decisions about as well as ever.,1-I find it more difficult to make decisions than usual.,2-I have much greater difficulty in making decisions than I used to.,3-I have trouble making any decisions.,,,,,,,,,,,,,,,,,,,,,,,,,,,,,,,,,,,,,,,,,,,,,,,,,,,,,,,,,,,,,,,,,,,,,
,,26,001,2023-09-27_12h40.25.870,Experiment_Tuerk,2022.2.4,Win32,20.00080003,,,,,,,,,,,,,,,,,,,,,,,,,,,,,,,,,,,,,,,,,,,,,,,,,,,,,,,,,,,,,,,,,,,,,,,,,,,,,,,,,,,,0,3.2099,0,13,13,13,1,14. Worthlessness,0-I do not feel I am worthless.,1-I don't consider myself as worthwhile and useful as I used to.,2-I feel more worthless as compared to others.,3-I feel utterly worthless.,,,,,,,,,,,,,,,,,,,,,,,,,,,,,,,,,,,,,,,,,,,,,,,,,,,,,,,,,,,,,,,,,,,,,
,,26,001,2023-09-27_12h40.25.870,Experiment_Tuerk,2022.2.4,Win32,20.00080003,,,,,,,,,,,,,,,,,,,,,,,,,,,,,,,,,,,,,,,,,,,,,,,,,,,,,,,,,,,,,,,,,,,,,,,,,,,,,,,,,,,,0,2.2207,0,14,14,14,1,15. Loss of energy,0-I have as much energy as ever.,1-I have less energy than I used to have.,2-I don't have enough energy to do very much.,3-I don't have enough energy to do anything.,,,,,,,,,,,,,,,,,,,,,,,,,,,,,,,,,,,,,,,,,,,,,,,,,,,,,,,,,,,,,,,,,,,,,
,,26,001,2023-09-27_12h40.25.870,Experiment_Tuerk,2022.2.4,Win32,20.00080003,,,,,,,,,,,,,,,,,,,,,,,,,,,,,,,,,,,,,,,,,,,,,,,,,,,,,,,,,,,,,,,,,,,,,,,,,,,,,,,,,,,,1,11.3472,0,15,15,15,1,16. Changes in sleeping pattern,0-I have not experienced any change in my sleeping.,"1a-I sleep somewhat more than usual.
1b-I sleep somewhat less than usual.","2a-I sleep a lot more than usual.
2b-I sleep a lot less than usual.","3a-I sleep most of the day.
3b-I wake up 1-2 hours early and can't get back to sleep.",,,,,,,,,,,,,,,,,,,,,,,,,,,,,,,,,,,,,,,,,,,,,,,,,,,,,,,,,,,,,,,,,,,,,
,,26,001,2023-09-27_12h40.25.870,Experiment_Tuerk,2022.2.4,Win32,20.00080003,,,,,,,,,,,,,,,,,,,,,,,,,,,,,,,,,,,,,,,,,,,,,,,,,,,,,,,,,,,,,,,,,,,,,,,,,,,,,,,,,,,,0,4.0911,0,16,16,16,1,17. Irritability,0-I am not more irritable than usual.,1-I am more irritable than usual.,2-I am much more irritable than usual.,3-I am irritable all the time.,,,,,,,,,,,,,,,,,,,,,,,,,,,,,,,,,,,,,,,,,,,,,,,,,,,,,,,,,,,,,,,,,,,,,
,,26,001,2023-09-27_12h40.25.870,Experiment_Tuerk,2022.2.4,Win32,20.00080003,,,,,,,,,,,,,,,,,,,,,,,,,,,,,,,,,,,,,,,,,,,,,,,,,,,,,,,,,,,,,,,,,,,,,,,,,,,,,,,,,,,,0,4.0238,0,17,17,17,1,18. Changes in Appetite,0-I have not experienced any change in my appetite.,"1a-My appetite is somewhat less than usual.
1b-My appetite is somewhat greater than usual.","2a-My appetite is much less than before.
2b-My appetite is much greater than usual.","3a-I have no appetite at all.
3b-I crave food all the time.",,,,,,,,,,,,,,,,,,,,,,,,,,,,,,,,,,,,,,,,,,,,,,,,,,,,,,,,,,,,,,,,,,,,,
,,26,001,2023-09-27_12h40.25.870,Experiment_Tuerk,2022.2.4,Win32,20.00080003,,,,,,,,,,,,,,,,,,,,,,,,,,,,,,,,,,,,,,,,,,,,,,,,,,,,,,,,,,,,,,,,,,,,,,,,,,,,,,,,,,,,1,7.7712,0,18,18,18,1,19. Concentration difficulty,0-I can concentrate as well as ever.,1-I can't concentrate as well as usual.,2-It's hard to keep my mind on anything for very long.,3-I find I can't concentrate on anything.,,,,,,,,,,,,,,,,,,,,,,,,,,,,,,,,,,,,,,,,,,,,,,,,,,,,,,,,,,,,,,,,,,,,,
,,26,001,2023-09-27_12h40.25.870,Experiment_Tuerk,2022.2.4,Win32,20.00080003,,,,,,,,,,,,,,,,,,,,,,,,,,,,,,,,,,,,,,,,,,,,,,,,,,,,,,,,,,,,,,,,,,,,,,,,,,,,,,,,,,,,0,1.8521,0,19,19,19,1,20. Tiredness or fatigue,0-I am no more tired or fatigued than usual.,1-I get more tired or fatigued more easily than usual.,2-I am too tired or fatigued to do a lot of the things I used to do.,3-I am too tired or fatigued to do most of the things I used to do.,,,,,,,,,,,,,,,,,,,,,,,,,,,,,,,,,,,,,,,,,,,,,,,,,,,,,,,,,,,,,,,,,,,,,
,,26,001,2023-09-27_12h40.25.870,Experiment_Tuerk,2022.2.4,Win32,20.00080003,,,,,,,,,,,,,,,,,,,,,,,,,,,,,,,,,,,,,,,,,,,,,,,,,,,,,,,,,,,,,,,,,,,,,,,,,,,,,,,,,,,,0,2.5829,0,20,20,20,1,21. Loss of interest in sex,0-I have not noticed any recent change in my interest in sex.,1-I am less interested in sex than I used to be.,2-I am much less interested in sex now.,3-I have lost interest in sex completely.,,,,,,,,,,,,,,,,,,,,,,,,,,,,,,,,,,,,,,,,,,,,,,,,,,,,,,,,,,,,,,,,,,,,,
,,26,001,2023-09-27_12h40.25.870,Experiment_Tuerk,2022.2.4,Win32,20.00080003,,,,,,,,,,,,,,,,,,,,,,,,,,,,,,,,,,,,,,,,,,,,,,,,,,,,,,,,,,,,,,,,,,,,,,,,,,,,,,,,,,,,,,,,,,,,,,,,0,0,0,0,1,,,,,,,,,,,,,,,,,,,,,,,,,,,,,,,,,,,,,,,,,,,,,,,,,,,,,,,,,,,,,,,,
,,26,001,2023-09-27_12h40.25.870,Experiment_Tuerk,2022.2.4,Win32,20.00080003,,,,,,,,,,,,,,,,,,,,,,,,,,,,,,,,,,,,,,0,3,3,1,1,0,1,0,0,,,,,,,,,,,,,,,,,,,,,,,,,,,,,,,,,,,,,,,,,,,,,,,,,,,,,,,,,,,,,,,,,,,,,,,,,,,,,,,,,,,,,,,,,,,,,,,,,,,,,,,,,,,,,,,,,,,,,,
,,26,001,2023-09-27_12h40.25.870,Experiment_Tuerk,2022.2.4,Win32,20.00080003,,,,,,,,,,,,,,,,,,,,,,,,,,,,,,,,,,,,,,,,,,,,,,,,,,,,,,,,,,,,,,,,,,,,,,,,,,,,,,,,,,,,,,,,,,,,,,,,,,,,,space,12.4836,,,,,,,,,,,,,,,,,,,,,,,,,,,,,,,,,,,,,,,,,,,,,,,,,,,,,,,,,,,,,,
,,26,001,2023-09-27_12h40.25.870,Experiment_Tuerk,2022.2.4,Win32,20.00080003,,,,,,,,,,,,,,,,,,,,,,,,,,,,,,,,,,,,,,,,,,,,,,,,,,,,,,,,,,,,,,,,,,,,,,,,,,,,,,,,,,,,,,,,,,,,,,,,,,,,,,,1,7.3772,0,0,0,0,1,1. I feel disconnected from friends when I have not logged into social media.,1,,,,,,,,,,,,,,,,,,,,,,,,,,,,,,,,,,,,,,,,,,,,,,,,,,,,,
,,26,001,2023-09-27_12h40.25.870,Experiment_Tuerk,2022.2.4,Win32,20.00080003,,,,,,,,,,,,,,,,,,,,,,,,,,,,,,,,,,,,,,,,,,,,,,,,,,,,,,,,,,,,,,,,,,,,,,,,,,,,,,,,,,,,,,,,,,,,,,,,,,,,,,,4,11.7053,0,1,1,1,1,2. I would like if if everyone used social media to communicate.,2,,,,,,,,,,,,,,,,,,,,,,,,,,,,,,,,,,,,,,,,,,,,,,,,,,,,,
,,26,001,2023-09-27_12h40.25.870,Experiment_Tuerk,2022.2.4,Win32,20.00080003,,,,,,,,,,,,,,,,,,,,,,,,,,,,,,,,,,,,,,,,,,,,,,,,,,,,,,,,,,,,,,,,,,,,,,,,,,,,,,,,,,,,,,,,,,,,,,,,,,,,,,,6,8.9761,0,2,2,2,1,3. I would be disappointed if I could not use social media at all.,3,,,,,,,,,,,,,,,,,,,,,,,,,,,,,,,,,,,,,,,,,,,,,,,,,,,,,
,,26,001,2023-09-27_12h40.25.870,Experiment_Tuerk,2022.2.4,Win32,20.00080003,,,,,,,,,,,,,,,,,,,,,,,,,,,,,,,,,,,,,,,,,,,,,,,,,,,,,,,,,,,,,,,,,,,,,,,,,,,,,,,,,,,,,,,,,,,,,,,,,,,,,,,4,7.7871,0,3,3,3,1,4. I get upset when I can't log on to social media.,4,,,,,,,,,,,,,,,,,,,,,,,,,,,,,,,,,,,,,,,,,,,,,,,,,,,,,
,,26,001,2023-09-27_12h40.25.870,Experiment_Tuerk,2022.2.4,Win32,20.00080003,,,,,,,,,,,,,,,,,,,,,,,,,,,,,,,,,,,,,,,,,,,,,,,,,,,,,,,,,,,,,,,,,,,,,,,,,,,,,,,,,,,,,,,,,,,,,,,,,,,,,,,4,6.7627,0,4,4,4,1,5. I prefer to communicate with others mainly through social media.,5,,,,,,,,,,,,,,,,,,,,,,,,,,,,,,,,,,,,,,,,,,,,,,,,,,,,,
,,26,001,2023-09-27_12h40.25.870,Experiment_Tuerk,2022.2.4,Win32,20.00080003,,,,,,,,,,,,,,,,,,,,,,,,,,,,,,,,,,,,,,,,,,,,,,,,,,,,,,,,,,,,,,,,,,,,,,,,,,,,,,,,,,,,,,,,,,,,,,,,,,,,,,,1,4.8572,0,5,5,5,1,6. Social media plays an important role in my social relationships.,6,,,,,,,,,,,,,,,,,,,,,,,,,,,,,,,,,,,,,,,,,,,,,,,,,,,,,
,,26,001,2023-09-27_12h40.25.870,Experiment_Tuerk,2022.2.4,Win32,20.00080003,,,,,,,,,,,,,,,,,,,,,,,,,,,,,,,,,,,,,,,,,,,,,,,,,,,,,,,,,,,,,,,,,,,,,,,,,,,,,,,,,,,,,,,,,,,,,,,,,,,,,,,5,5.2225,0,6,6,6,1,7. I enjoy checking my social media account(s).,7,,,,,,,,,,,,,,,,,,,,,,,,,,,,,,,,,,,,,,,,,,,,,,,,,,,,,
,,26,001,2023-09-27_12h40.25.870,Experiment_Tuerk,2022.2.4,Win32,20.00080003,,,,,,,,,,,,,,,,,,,,,,,,,,,,,,,,,,,,,,,,,,,,,,,,,,,,,,,,,,,,,,,,,,,,,,,,,,,,,,,,,,,,,,,,,,,,,,,,,,,,,,,1,3.0996,0,7,7,7,1,8. I don't like to use social media.,8,,,,,,,,,,,,,,,,,,,,,,,,,,,,,,,,,,,,,,,,,,,,,,,,,,,,,
,,26,001,2023-09-27_12h40.25.870,Experiment_Tuerk,2022.2.4,Win32,20.00080003,,,,,,,,,,,,,,,,,,,,,,,,,,,,,,,,,,,,,,,,,,,,,,,,,,,,,,,,,,,,,,,,,,,,,,,,,,,,,,,,,,,,,,,,,,,,,,,,,,,,,,,4,6.1941,0,8,8,8,1,9. Using social media is part of my everyday routine.,9,,,,,,,,,,,,,,,,,,,,,,,,,,,,,,,,,,,,,,,,,,,,,,,,,,,,,
,,26,001,2023-09-27_12h40.25.870,Experiment_Tuerk,2022.2.4,Win32,20.00080003,,,,,,,,,,,,,,,,,,,,,,,,,,,,,,,,,,,,,,,,,,,,,,,,,,,,,,,,,,,,,,,,,,,,,,,,,,,,,,,,,,,,,,,,,,,,,,,,,,,,,,,5,9.3971,0,9,9,9,1,10. I respond to content that others share using social media.,10,,,,,,,,,,,,,,,,,,,,,,,,,,,,,,,,,,,,,,,,,,,,,,,,,,,,,
,,26,001,2023-09-27_12h40.25.870,Experiment_Tuerk,2022.2.4,Win32,20.00080003,,,,,,,,,,,,,,,,,,,,,,,,,,,,,,,,,,,,,,,,,,,,,,,,,,,,,,,,,,,,,,,,,,,,,,,,,,,,,,,,,,,,,,,,,,,,,,,,,,,,,,,,,,,,,,,,,,,,,,,,,,,,,,,,,,,,,,,,,,,,,,,,,,,,,,,,,,,,,,,,,,,,
,,26,001,2023-09-27_12h40.25.870,Experiment_Tuerk,2022.2.4,Win32,20.00080003,,,,,,,,,,,,,,,,,,,,,,,,,,,,,,,,,,,,,,,,,,,,,,,,,,,,,,,,,,,,,,,,,,,,,,,,,,,,,,,,,,,,,,,,,,,,,,,,,,,,,,,,,,,,,,,,space,100.2747,,,,,,,,,,,,,,,,,,,,,,,,,,,,,,,,,,,,,,,,,,,,,,,,,,,
,,26,001,2023-09-27_12h40.25.870,Experiment_Tuerk,2022.2.4,Win32,20.00080003,,,,,,,,,,,,,,,,,,,,,,,,,,,,,,,,,,,,,,,,,,,,,,,,,,,,,,,,,,,,,,,,,,,,,,,,,,,,,,,,,,,,,,,,,,,,,,,,,,,,,,,,,,,,,,,,,,space,16.1706,,,,,,,,,,,,,,,,,,,,,,,,,,,,,,,,,,,,,,,,,,,,,,,,,
,,26,001,2023-09-27_12h40.25.870,Experiment_Tuerk,2022.2.4,Win32,20.00080003,,,,,,,,,,,,,,,,,,,,,,,,,,,,,,,,,,,,,,,,,,,,,,,,,,,,,,,,,,,,,,,,,,,,,,,,,,,,,,,,,,,,,,,,,,,,,,,,,,,,,,,,,,,,,,,,,,,,space,34.3096,,,,,,,,,,,,,,,,,,,,,,,,,,,,,,,,,,,,,,,,,,,,,,,
,,26,001,2023-09-27_12h40.25.870,Experiment_Tuerk,2022.2.4,Win32,20.00080003,,,,,,,,,,,,,,,,,,,,,,,,,,,,,,,,,,,,,,,,,,,,,,,,,,,,,,,,,,,,,,,,,,,,,,,,,,,,,,,,,,,,,,,,,,,,,,,,,,,,,,,,,,,,,,,,,,,,,,space,9.4765,,,,,,,,,,,,,,,,,,,,,,,,,,,,,,,,,,,,,,,,,,,,,
,,26,001,2023-09-27_12h40.25.870,Experiment_Tuerk,2022.2.4,Win32,20.00080003,,,,,,,,,,,,,,,,,,,,,,,,,,,,,,,,,,,,,,,,,,,,,,,,,,,,,,,,,,,,,,,,,,,,,,,,,,,,,,,,,,,,,,,,,,,,,,,,,,,,,,,,,,,,,,,,,,,,,,,,space,9.987,,,,,,,,,,,,,,,,,,,,,,,,,,,,,,,,,,,,,,,,,,,
,,26,001,2023-09-27_12h40.25.870,Experiment_Tuerk,2022.2.4,Win32,20.00080003,,,,,,,,,,,,,,,,,,,,,,,,,,,,,,,,,,,,,,,,,,,,,,,,,,,,,,,,,,,,,,,,,,,,,,,,,,,,,,,,,,,,,,,,,,,,,,,,,,,,,,,,,,,,,,,,,,,,,,,,,,space,15.6424,,,,,,,,,,,,,,,,,,,,,,,,,,,,,,,,,,,,,,,,,
,,26,001,2023-09-27_12h40.25.870,Experiment_Tuerk,2022.2.4,Win32,20.00080003,,,,,,,,,,,,,,,,,,,,,,,,,,,,,,,,,,,,,,,,,,,,,,,,,,,,,,,,,,,,,,,,,,,,,,,,,,,,,,,,,,,,,,,,,,,,,,,,,,,,,,,,,,,,,,,,,,,,,,,,,,,,space,28.2888,,,,,,,,,,,,,,,,,,,,,,,,,,,,,,,,,,,,,,,
,,26,001,2023-09-27_12h40.25.870,Experiment_Tuerk,2022.2.4,Win32,20.00080003,,,,,,,,,,,,,,,,,,,,,,,,,,,,,,,,,,,,,,,,,,,,,,,,,,,,,,,,,,,,,,,,,,,,,,,,,,,,,,,,,,,,,,,,,,,,,,,,,,,,,,,,,,,,,,,,,,,,,,,,,,,,,,space,23.8481,,,,,,,,,,,,,,,,,,,,,,,,,,,,,,,,,,,,,
,,26,001,2023-09-27_12h40.25.870,Experiment_Tuerk,2022.2.4,Win32,20.00080003,,,,,,,,,,,,,,,,,,,,,,,,,,,,,,,,,,,,,,,,,,,,,,,,,,,,,,,,,,,,,,,,,,,,,,,,,,,,,,,,,,,,,,,,,,,,,,,,,,,,,,,,,,,,,,,,,,,,,,,,,,,,,,,,space,5.6771,,,,,,,,,,,,,,,,,,,,,,,,,,,,,,,,,,,
,,26,001,2023-09-27_12h40.25.870,Experiment_Tuerk,2022.2.4,Win32,20.00080003,,,,,,,,,,,,,,,,,,,,,,,,,,,,,,,,,,,,,,,,,,,,,,,,,,,,,,,,,,,,,,,,,,,,,,,,,,,,,,,,,,,,,,,,,,,,,,,,,,,,,,,,,,,,,,,,,,,,,,,,,,,,,,,,,,space,20.9257,m,1,0.6115,,,0,0,0,0,1,1,Practice,Practice_N,waterfall.jpg,city.jpg,right,loss,m,Stimuli/Practice/Mango.jpg,1,1,neg,A,Neutral.png,Sad.png,,,,,,,,
,,26,001,2023-09-27_12h40.25.870,Experiment_Tuerk,2022.2.4,Win32,20.00080003,,,,,,,,,,,,,,,,,,,,,,,,,,,,,,,,,,,,,,,,,,,,,,,,,,,,,,,,,,,,,,,,,,,,,,,,,,,,,,,,,,,,,,,,,,,,,,,,,,,,,,,,,,,,,,,,,,,,,,,,,,,,,,,,,,,,m,1,2.0135,,,0,1,1,1,1,2,Practice,Practice_N,waterfall.jpg,city.jpg,right,loss,m,Stimuli/Practice/PenStand.jpg,2,1,neg,A,Neutral.png,Sad.png,,,,,,,,
,,26,001,2023-09-27_12h40.25.870,Experiment_Tuerk,2022.2.4,Win32,20.00080003,,,,,,,,,,,,,,,,,,,,,,,,,,,,,,,,,,,,,,,,,,,,,,,,,,,,,,,,,,,,,,,,,,,,,,,,,,,,,,,,,,,,,,,,,,,,,,,,,,,,,,,,,,,,,,,,,,,,,,,,,,,,,,,,,,,,c,0,1.3866,,,0,2,2,2,1,3,Practice,Practice_N,city.jpg,waterfall.jpg,left,loss,m,Stimuli/Practice/Coatrack.jpg,3,1,neg,A,Neutral.png,Sad.png,,,,,,,,
,,26,001,2023-09-27_12h40.25.870,Experiment_Tuerk,2022.2.4,Win32,20.00080003,,,,,,,,,,,,,,,,,,,,,,,,,,,,,,,,,,,,,,,,,,,,,,,,,,,,,,,,,,,,,,,,,,,,,,,,,,,,,,,,,,,,,,,,,,,,,,,,,,,,,,,,,,,,,,,,,,,,,,,,,,,,,,,,,,,,m,1,0.6351,,,0,3,3,3,1,4,Practice,Practice_N,waterfall.jpg,city.jpg,right,loss,m,Stimuli/Practice/ChewingGum.jpg,4,1,neg,A,Neutral.png,Sad.png,,,,,,,,
,,26,001,2023-09-27_12h40.25.870,Experiment_Tuerk,2022.2.4,Win32,20.00080003,,,,,,,,,,,,,,,,,,,,,,,,,,,,,,,,,,,,,,,,,,,,,,,,,,,,,,,,,,,,,,,,,,,,,,,,,,,,,,,,,,,,,,,,,,,,,,,,,,,,,,,,,,,,,,,,,,,,,,,,,,,,,,,,,,,,c,1,1.4535,,,0,4,4,4,1,5,Practice,Practice_N,city.jpg,waterfall.jpg,right,nl,c,Stimuli/Practice/Gauge.jpg,5,1,neg,A,Neutral.png,Sad.png,,,,,,,,
,,26,001,2023-09-27_12h40.25.870,Experiment_Tuerk,2022.2.4,Win32,20.00080003,,,,,,,,,,,,,,,,,,,,,,,,,,,,,,,,,,,,,,,,,,,,,,,,,,,,,,,,,,,,,,,,,,,,,,,,,,,,,,,,,,,,,,,,,,,,,,,,,,,,,,,,,,,,,,,,,,,,,,,,,,,,,,,,,,,,c,1,1.2988,,,0,5,5,5,1,6,Practice,Practice_N,waterfall.jpg,city.jpg,left,nl,c,Stimuli/Practice/Canteen.jpg,6,1,neg,A,Neutral.png,Sad.png,,,,,,,,
,,26,001,2023-09-27_12h40.25.870,Experiment_Tuerk,2022.2.4,Win32,20.00080003,,,,,,,,,,,,,,,,,,,,,,,,,,,,,,,,,,,,,,,,,,,,,,,,,,,,,,,,,,,,,,,,,,,,,,,,,,,,,,,,,,,,,,,,,,,,,,,,,,,,,,,,,,,,,,,,,,,,,,,,,,,,,,,,,,,,m,0,0.6467,,,0,6,6,6,1,7,Practice,Practice_N,city.jpg,waterfall.jpg,right,nl,c,Stimuli/Practice/Golf_Bag.jpg,7,1,neg,A,Neutral.png,Sad.png,,,,,,,,
,,26,001,2023-09-27_12h40.25.870,Experiment_Tuerk,2022.2.4,Win32,20.00080003,,,,,,,,,,,,,,,,,,,,,,,,,,,,,,,,,,,,,,,,,,,,,,,,,,,,,,,,,,,,,,,,,,,,,,,,,,,,,,,,,,,,,,,,,,,,,,,,,,,,,,,,,,,,,,,,,,,,,,,,,,,,,,,,,,,,m,0,0.694,,,0,7,7,7,1,8,Practice,Practice_N,city.jpg,waterfall.jpg,right,loss,c,Stimuli/Practice/Fork_Fondue.jpg,8,0,neg,A,Neutral.png,Sad.png,,,,,,,,
,,26,001,2023-09-27_12h40.25.870,Experiment_Tuerk,2022.2.4,Win32,20.00080003,,,,,,,,,,,,,,,,,,,,,,,,,,,,,,,,,,,,,,,,,,,,,,,,,,,,,,,,,,,,,,,,,,,,,,,,,,,,,,,,,,,,,,,,,,,,,,,,,,,,,,,,,,,,,,,,,,,,,,,,,,,,,,,,,,,,m,1,0.2242,,,0,8,8,8,1,9,Practice,Practice_N,waterfall.jpg,city.jpg,right,loss,m,Stimuli/Practice/Toy_BlocksMultiShape.jpg,9,1,neg,A,Neutral.png,Sad.png,,,,,,,,
,,26,001,2023-09-27_12h40.25.870,Experiment_Tuerk,2022.2.4,Win32,20.00080003,,,,,,,,,,,,,,,,,,,,,,,,,,,,,,,,,,,,,,,,,,,,,,,,,,,,,,,,,,,,,,,,,,,,,,,,,,,,,,,,,,,,,,,,,,,,,,,,,,,,,,,,,,,,,,,,,,,,,,,,,,,,,,,,,,,,m,0,0.8485,,,0,9,9,9,1,10,Practice,Practice_N,city.jpg,waterfall.jpg,right,nl,c,Stimuli/Practice/Garbage_GreenBin.jpg,10,1,neg,A,Neutral.png,Sad.png,,,,,,,,
,,26,001,2023-09-27_12h40.25.870,Experiment_Tuerk,2022.2.4,Win32,20.00080003,,,,,,,,,,,,,,,,,,,,,,,,,,,,,,,,,,,,,,,,,,,,,,,,,,,,,,,,,,,,,,,,,,,,,,,,,,,,,,,,,,,,,,,,,,,,,,,,,,,,,,,,,,,,,,,,,,,,,,,,,,,,,,,,,,,,m,0,0.0019,,,0,10,10,10,1,11,Practice,Practice_N,waterfall.jpg,city.jpg,left,nl,c,Stimuli/Practice/OnionRed.jpg,11,1,neg,A,Neutral.png,Sad.png,,,,,,,,
,,26,001,2023-09-27_12h40.25.870,Experiment_Tuerk,2022.2.4,Win32,20.00080003,,,,,,,,,,,,,,,,,,,,,,,,,,,,,,,,,,,,,,,,,,,,,,,,,,,,,,,,,,,,,,,,,,,,,,,,,,,,,,,,,,,,,,,,,,,,,,,,,,,,,,,,,,,,,,,,,,,,,,,,,,,,,,,,,,,,c,1,0.6019,,,0,11,11,11,1,12,Practice,Practice_N,waterfall.jpg,city.jpg,left,nl,c,Stimuli/Practice/Stovetop.jpg,12,1,neg,A,Neutral.png,Sad.png,,,,,,,,
,,26,001,2023-09-27_12h40.25.870,Experiment_Tuerk,2022.2.4,Win32,20.00080003,,,,,,,,,,,,,,,,,,,,,,,,,,,,,,,,,,,,,,,,,,,,,,,,,,,,,,,,,,,,,,,,,,,,,,,,,,,,,,,,,,,,,,,,,,,,,,,,,,,,,,,,,,,,,,,,,,,,,,,,,,,,,,,,,,,,c,1,0.87,,,0,12,12,12,1,13,Practice,Practice_N,waterfall.jpg,city.jpg,left,nl,c,Stimuli/Practice/LeatherPuncherTool.jpg,13,1,neg,A,Neutral.png,Sad.png,,,,,,,,
,,26,001,2023-09-27_12h40.25.870,Experiment_Tuerk,2022.2.4,Win32,20.00080003,,,,,,,,,,,,,,,,,,,,,,,,,,,,,,,,,,,,,,,,,,,,,,,,,,,,,,,,,,,,,,,,,,,,,,,,,,,,,,,,,,,,,,,,,,,,,,,,,,,,,,,,,,,,,,,,,,,,,,,,,,,,,,,,,,,,c,0,1.1373,,,0,13,13,13,1,14,Practice,Practice_N,city.jpg,waterfall.jpg,left,nl,m,Stimuli/Practice/FireAlarm.jpg,14,0,neg,A,Neutral.png,Sad.png,,,,,,,,
,,26,001,2023-09-27_12h40.25.870,Experiment_Tuerk,2022.2.4,Win32,20.00080003,,,,,,,,,,,,,,,,,,,,,,,,,,,,,,,,,,,,,,,,,,,,,,,,,,,,,,,,,,,,,,,,,,,,,,,,,,,,,,,,,,,,,,,,,,,,,,,,,,,,,,,,,,,,,,,,,,,,,,,,,,,,,,,,,,,,m,1,1.2341,,,0,14,14,14,1,15,Practice,Practice_N,waterfall.jpg,city.jpg,right,loss,m,Stimuli/Practice/Shoes_Snowboarding.jpg,15,1,neg,A,Neutral.png,Sad.png,,,,,,,,
,,26,001,2023-09-27_12h40.25.870,Experiment_Tuerk,2022.2.4,Win32,20.00080003,,,,,,,,,,,,,,,,,,,,,,,,,,,,,,,,,,,,,,,,,,,,,,,,,,,,,,,,,,,,,,,,,,,,,,,,,,,,,,,,,,,,,,,,,,,,,,,,,,,,,,,,,,,,,,,,,,,,,,,,,,,,,,,,,,,,c,0,1.1024,,,0,15,15,15,1,16,Practice,Practice_N,city.jpg,waterfall.jpg,left,nl,m,Stimuli/Practice/CarJack.jpg,16,0,neg,A,Neutral.png,Sad.png,,,,,,,,
,,26,001,2023-09-27_12h40.25.870,Experiment_Tuerk,2022.2.4,Win32,20.00080003,,,,,,,,,,,,,,,,,,,,,,,,,,,,,,,,,,,,,,,,,,,,,,,,,,,,,,,,,,,,,,,,,,,,,,,,,,,,,,,,,,,,,,,,,,,,,,,,,,,,,,,,,,,,,,,,,,,,,,,,,,,,,,,,,,,,m,1,0.052,,,0,16,16,16,1,17,Practice,Practice_N,waterfall.jpg,city.jpg,right,nl,m,Stimuli/Practice/Pen_Calligraphy.jpg,17,0,neg,A,Neutral.png,Sad.png,,,,,,,,
,,26,001,2023-09-27_12h40.25.870,Experiment_Tuerk,2022.2.4,Win32,20.00080003,,,,,,,,,,,,,,,,,,,,,,,,,,,,,,,,,,,,,,,,,,,,,,,,,,,,,,,,,,,,,,,,,,,,,,,,,,,,,,,,,,,,,,,,,,,,,,,,,,,,,,,,,,,,,,,,,,,,,,,,,,,,,,,,,,,,c,0,0.8049,,,0,17,17,17,1,18,Practice,Practice_N,city.jpg,waterfall.jpg,left,loss,m,Stimuli/Practice/Container_Tupperware.jpg,18,1,neg,A,Neutral.png,Sad.png,,,,,,,,
,,26,001,2023-09-27_12h40.25.870,Experiment_Tuerk,2022.2.4,Win32,20.00080003,,,,,,,,,,,,,,,,,,,,,,,,,,,,,,,,,,,,,,,,,,,,,,,,,,,,,,,,,,,,,,,,,,,,,,,,,,,,,,,,,,,,,,,,,,,,,,,,,,,,,,,,,,,,,,,,,,,,,,,,,,,,,,,,,,,,m,1,0.0018,,,0,18,18,18,1,19,Practice,Practice_N,city.jpg,waterfall.jpg,left,loss,m,Stimuli/Practice/ClothCoaster.jpg,19,1,neg,A,Neutral.png,Sad.png,,,,,,,,
,,26,001,2023-09-27_12h40.25.870,Experiment_Tuerk,2022.2.4,Win32,20.00080003,,,,,,,,,,,,,,,,,,,,,,,,,,,,,,,,,,,,,,,,,,,,,,,,,,,,,,,,,,,,,,,,,,,,,,,,,,,,,,,,,,,,,,,,,,,,,,,,,,,,,,,,,,,,,,,,,,,,,,,,,,,,,,,,,,,,c,1,1.2218,,,0,19,19,19,1,20,Practice,Practice_N,waterfall.jpg,city.jpg,left,nl,c,Stimuli/Practice/Kneepad.jpg,20,1,neg,A,Neutral.png,Sad.png,,,,,,,,
,,26,001,2023-09-27_12h40.25.870,Experiment_Tuerk,2022.2.4,Win32,20.00080003,,,,,,,,,,,,,,,,,,,,,,,,,,,,,,,,,,,,,,,,,,,,,,,,,,,,,,,,,,,,,,,,,,,,,,,,,,,,,,,,,,,,,,,,,,,,,,,,,,,,,,,,,,,,,,,,,,,,,,,,,,,,,,,,,,,,m,0,0.1028,,,0,20,20,20,1,21,Practice,Practice_N,city.jpg,waterfall.jpg,right,loss,c,Stimuli/Practice/Dill.jpg,21,0,neg,A,Neutral.png,Sad.png,,,,,,,,
,,26,001,2023-09-27_12h40.25.870,Experiment_Tuerk,2022.2.4,Win32,20.00080003,,,,,,,,,,,,,,,,,,,,,,,,,,,,,,,,,,,,,,,,,,,,,,,,,,,,,,,,,,,,,,,,,,,,,,,,,,,,,,,,,,,,,,,,,,,,,,,,,,,,,,,,,,,,,,,,,,,,,,,,,,,,,,,,,,,,m,0,0.2884,,,0,21,21,21,1,22,Practice,Practice_N,waterfall.jpg,city.jpg,left,nl,c,Stimuli/Practice/Clock_Radio.jpg,22,1,neg,A,Neutral.png,Sad.png,,,,,,,,
,,26,001,2023-09-27_12h40.25.870,Experiment_Tuerk,2022.2.4,Win32,20.00080003,,,,,,,,,,,,,,,,,,,,,,,,,,,,,,,,,,,,,,,,,,,,,,,,,,,,,,,,,,,,,,,,,,,,,,,,,,,,,,,,,,,,,,,,,,,,,,,,,,,,,,,,,,,,,,,,,,,,,,,,,,,,,,,,,,,,c,1,0.0021,,,0,22,22,22,1,23,Practice,Practice_N,waterfall.jpg,city.jpg,left,nl,c,Stimuli/Practice/Pajamas.jpg,23,1,neg,A,Neutral.png,Sad.png,,,,,,,,
,,26,001,2023-09-27_12h40.25.870,Experiment_Tuerk,2022.2.4,Win32,20.00080003,,,,,,,,,,,,,,,,,,,,,,,,,,,,,,,,,,,,,,,,,,,,,,,,,,,,,,,,,,,,,,,,,,,,,,,,,,,,,,,,,,,,,,,,,,,,,,,,,,,,,,,,,,,,,,,,,,,,,,,,,,,,,,,,,,,,m,1,0.6418,,,0,23,23,23,1,24,Practice,Practice_N,waterfall.jpg,city.jpg,right,loss,m,Stimuli/Practice/SoapBottle.jpg,24,1,neg,A,Neutral.png,Sad.png,,,,,,,,
,,26,001,2023-09-27_12h40.25.870,Experiment_Tuerk,2022.2.4,Win32,20.00080003,,,,,,,,,,,,,,,,,,,,,,,,,,,,,,,,,,,,,,,,,,,,,,,,,,,,,,,,,,,,,,,,,,,,,,,,,,,,,,,,,,,,,,,,,,,,,,,,,,,,,,,,,,,,,,,,,,,,,,,,,,,,,,,,,,,,m,1,0.0693,,,0,24,24,24,1,25,Practice,Practice_N,city.jpg,waterfall.jpg,left,loss,m,Stimuli/Practice/ChessPiece_Bishop.jpg,25,1,neg,A,Neutral.png,Sad.png,,,,,,,,
,,26,001,2023-09-27_12h40.25.870,Experiment_Tuerk,2022.2.4,Win32,20.00080003,,,,,,,,,,,,,,,,,,,,,,,,,,,,,,,,,,,,,,,,,,,,,,,,,,,,,,,,,,,,,,,,,,,,,,,,,,,,,,,,,,,,,,,,,,,,,,,,,,,,,,,,,,,,,,,,,,,,,,,,,,,,,,,,,,,,m,1,1.014,,,0,25,25,25,1,26,Practice,Practice_N,waterfall.jpg,city.jpg,right,loss,m,Stimuli/Practice/ToothbrushHolder.jpg,26,1,neg,A,Neutral.png,Sad.png,,,,,,,,
,,26,001,2023-09-27_12h40.25.870,Experiment_Tuerk,2022.2.4,Win32,20.00080003,,,,,,,,,,,,,,,,,,,,,,,,,,,,,,,,,,,,,,,,,,,,,,,,,,,,,,,,,,,,,,,,,,,,,,,,,,,,,,,,,,,,,,,,,,,,,,,,,,,,,,,,,,,,,,,,,,,,,,,,,,,,,,,,,,,,m,1,0.2042,,,0,26,26,26,1,27,Practice,Practice_N,city.jpg,waterfall.jpg,left,loss,m,Stimuli/Practice/BicycleBrake.jpg,27,1,neg,A,Neutral.png,Sad.png,,,,,,,,
,,26,001,2023-09-27_12h40.25.870,Experiment_Tuerk,2022.2.4,Win32,20.00080003,,,,,,,,,,,,,,,,,,,,,,,,,,,,,,,,,,,,,,,,,,,,,,,,,,,,,,,,,,,,,,,,,,,,,,,,,,,,,,,,,,,,,,,,,,,,,,,,,,,,,,,,,,,,,,,,,,,,,,,,,,,,,,,,,,,,m,0,0.4739,,,0,27,27,27,1,28,Practice,Practice_N,city.jpg,waterfall.jpg,right,nl,c,Stimuli/Practice/Grill_Electric.jpg,28,1,neg,A,Neutral.png,Sad.png,,,,,,,,
,,26,001,2023-09-27_12h40.25.870,Experiment_Tuerk,2022.2.4,Win32,20.00080003,,,,,,,,,,,,,,,,,,,,,,,,,,,,,,,,,,,,,,,,,,,,,,,,,,,,,,,,,,,,,,,,,,,,,,,,,,,,,,,,,,,,,,,,,,,,,,,,,,,,,,,,,,,,,,,,,,,,,,,,,,,,,,,,,,,,c,1,0.405,,,0,28,28,28,1,29,Practice,Practice_N,waterfall.jpg,city.jpg,left,loss,c,Stimuli/Practice/Heater_Outdoor.jpg,29,0,neg,A,Neutral.png,Sad.png,,,,,,,,
,,26,001,2023-09-27_12h40.25.870,Experiment_Tuerk,2022.2.4,Win32,20.00080003,,,,,,,,,,,,,,,,,,,,,,,,,,,,,,,,,,,,,,,,,,,,,,,,,,,,,,,,,,,,,,,,,,,,,,,,,,,,,,,,,,,,,,,,,,,,,,,,,,,,,,,,,,,,,,,,,,,,,,,,,,,,,,,,,,,,m,0,0.3201,,,0,29,29,29,1,30,Practice,Practice_N,city.jpg,waterfall.jpg,right,nl,c,Stimuli/Practice/CrepeMaker.jpg,30,1,neg,A,Neutral.png,Sad.png,,,,,,,,
,,26,001,2023-09-27_12h40.25.870,Experiment_Tuerk,2022.2.4,Win32,20.00080003,,,,,,,,,,,,,,,,,,,,,,,,,,,,,,,,,,,,,,,,,,,,,,,,,,,,,,,,,,,,,,,,,,,,,,,,,,,,,,,,,,,,,,,,,,,,,,,,,,,,,,,,,,,,,,,,,,,,,,,,,,,,,,,,,,,,c,0,2.2482,,,0,30,30,30,1,31,Practice,Practice_N,city.jpg,waterfall.jpg,left,loss,m,Stimuli/Practice/BicyclePedal.jpg,31,1,neg,A,Neutral.png,Sad.png,,,,,,,,
,,26,001,2023-09-27_12h40.25.870,Experiment_Tuerk,2022.2.4,Win32,20.00080003,,,,,,,,,,,,,,,,,,,,,,,,,,,,,,,,,,,,,,,,,,,,,,,,,,,,,,,,,,,,,,,,,,,,,,,,,,,,,,,,,,,,,,,,,,,,,,,,,,,,,,,,,,,,,,,,,,,,,,,,,,,,,,,,,,,,m,0,2.3731,space,,0,31,31,31,1,32,Practice,Practice_N,city.jpg,waterfall.jpg,right,nl,c,Stimuli/Practice/GrillRack.jpg,32,1,neg,A,Neutral.png,Sad.png,6.3169,,,,,,,
,,26,001,2023-09-27_12h40.25.870,Experiment_Tuerk,2022.2.4,Win32,20.00080003,,,,,,,,,,,,,,,,,,,,,,,,,,,,,,,,,,,,,,,,,,,,,,,,,,,,,,,,,,,,,,,,,,,,,,,,,,,,,,,,,,,,,,,,,,,,,,,,,,,,,,,,,,,,,,,,,,,,,,,,,,,,,,,,,,,,m,1,0.388,,,1,0,32,0,1,1,Practice,Practice_N,waterfall.jpg,city.jpg,right,loss,m,Stimuli/Practice/Mango.jpg,1,1,neg,A,Neutral.png,Sad.png,,,,,,,,
,,26,001,2023-09-27_12h40.25.870,Experiment_Tuerk,2022.2.4,Win32,20.00080003,,,,,,,,,,,,,,,,,,,,,,,,,,,,,,,,,,,,,,,,,,,,,,,,,,,,,,,,,,,,,,,,,,,,,,,,,,,,,,,,,,,,,,,,,,,,,,,,,,,,,,,,,,,,,,,,,,,,,,,,,,,,,,,,,,,,c,0,0.2188,,,1,1,33,1,1,2,Practice,Practice_N,waterfall.jpg,city.jpg,right,loss,m,Stimuli/Practice/PenStand.jpg,2,1,neg,A,Neutral.png,Sad.png,,,,,,,,
,,26,001,2023-09-27_12h40.25.870,Experiment_Tuerk,2022.2.4,Win32,20.00080003,,,,,,,,,,,,,,,,,,,,,,,,,,,,,,,,,,,,,,,,,,,,,,,,,,,,,,,,,,,,,,,,,,,,,,,,,,,,,,,,,,,,,,,,,,,,,,,,,,,,,,,,,,,,,,,,,,,,,,,,,,,,,,,,,,,,c,0,0.053,,,1,2,34,2,1,3,Practice,Practice_N,city.jpg,waterfall.jpg,left,loss,m,Stimuli/Practice/Coatrack.jpg,3,1,neg,A,Neutral.png,Sad.png,,,,,,,,
,,26,001,2023-09-27_12h40.25.870,Experiment_Tuerk,2022.2.4,Win32,20.00080003,,,,,,,,,,,,,,,,,,,,,,,,,,,,,,,,,,,,,,,,,,,,,,,,,,,,,,,,,,,,,,,,,,,,,,,,,,,,,,,,,,,,,,,,,,,,,,,,,,,,,,,,,,,,,,,,,,,,,,,,,,,,,,,,,,,,c,0,0.4697,,,1,3,35,3,1,4,Practice,Practice_N,waterfall.jpg,city.jpg,right,loss,m,Stimuli/Practice/ChewingGum.jpg,4,1,neg,A,Neutral.png,Sad.png,,,,,,,,
,,26,001,2023-09-27_12h40.25.870,Experiment_Tuerk,2022.2.4,Win32,20.00080003,,,,,,,,,,,,,,,,,,,,,,,,,,,,,,,,,,,,,,,,,,,,,,,,,,,,,,,,,,,,,,,,,,,,,,,,,,,,,,,,,,,,,,,,,,,,,,,,,,,,,,,,,,,,,,,,,,,,,,,,,,,,,,,,,,,,m,0,0.2027,,,1,4,36,4,1,5,Practice,Practice_N,city.jpg,waterfall.jpg,right,nl,c,Stimuli/Practice/Gauge.jpg,5,1,neg,A,Neutral.png,Sad.png,,,,,,,,
,,26,001,2023-09-27_12h40.25.870,Experiment_Tuerk,2022.2.4,Win32,20.00080003,,,,,,,,,,,,,,,,,,,,,,,,,,,,,,,,,,,,,,,,,,,,,,,,,,,,,,,,,,,,,,,,,,,,,,,,,,,,,,,,,,,,,,,,,,,,,,,,,,,,,,,,,,,,,,,,,,,,,,,,,,,,,,,,,,,,c,1,0.5286,,,1,5,37,5,1,6,Practice,Practice_N,waterfall.jpg,city.jpg,left,nl,c,Stimuli/Practice/Canteen.jpg,6,1,neg,A,Neutral.png,Sad.png,,,,,,,,
,,26,001,2023-09-27_12h40.25.870,Experiment_Tuerk,2022.2.4,Win32,20.00080003,,,,,,,,,,,,,,,,,,,,,,,,,,,,,,,,,,,,,,,,,,,,,,,,,,,,,,,,,,,,,,,,,,,,,,,,,,,,,,,,,,,,,,,,,,,,,,,,,,,,,,,,,,,,,,,,,,,,,,,,,,,,,,,,,,,,m,0,0.0019,,,1,6,38,6,1,7,Practice,Practice_N,city.jpg,waterfall.jpg,right,nl,c,Stimuli/Practice/Golf_Bag.jpg,7,1,neg,A,Neutral.png,Sad.png,,,,,,,,
,,26,001,2023-09-27_12h40.25.870,Experiment_Tuerk,2022.2.4,Win32,20.00080003,,,,,,,,,,,,,,,,,,,,,,,,,,,,,,,,,,,,,,,,,,,,,,,,,,,,,,,,,,,,,,,,,,,,,,,,,,,,,,,,,,,,,,,,,,,,,,,,,,,,,,,,,,,,,,,,,,,,,,,,,,,,,,,,,,,,c,1,0.1687,,,1,7,39,7,1,8,Practice,Practice_N,city.jpg,waterfall.jpg,right,loss,c,Stimuli/Practice/Fork_Fondue.jpg,8,0,neg,A,Neutral.png,Sad.png,,,,,,,,
,,26,001,2023-09-27_12h40.25.870,Experiment_Tuerk,2022.2.4,Win32,20.00080003,,,,,,,,,,,,,,,,,,,,,,,,,,,,,,,,,,,,,,,,,,,,,,,,,,,,,,,,,,,,,,,,,,,,,,,,,,,,,,,,,,,,,,,,,,,,,,,,,,,,,,,,,,,,,,,,,,,,,,,,,,,,,,,,,,,,c,0,0.2702,,,1,8,40,8,1,9,Practice,Practice_N,waterfall.jpg,city.jpg,right,loss,m,Stimuli/Practice/Toy_BlocksMultiShape.jpg,9,1,neg,A,Neutral.png,Sad.png,,,,,,,,
,,26,001,2023-09-27_12h40.25.870,Experiment_Tuerk,2022.2.4,Win32,20.00080003,,,,,,,,,,,,,,,,,,,,,,,,,,,,,,,,,,,,,,,,,,,,,,,,,,,,,,,,,,,,,,,,,,,,,,,,,,,,,,,,,,,,,,,,,,,,,,,,,,,,,,,,,,,,,,,,,,,,,,,,,,,,,,,,,,,,c,1,0.2022,,,1,9,41,9,1,10,Practice,Practice_N,city.jpg,waterfall.jpg,right,nl,c,Stimuli/Practice/Garbage_GreenBin.jpg,10,1,neg,A,Neutral.png,Sad.png,,,,,,,,
,,26,001,2023-09-27_12h40.25.870,Experiment_Tuerk,2022.2.4,Win32,20.00080003,,,,,,,,,,,,,,,,,,,,,,,,,,,,,,,,,,,,,,,,,,,,,,,,,,,,,,,,,,,,,,,,,,,,,,,,,,,,,,,,,,,,,,,,,,,,,,,,,,,,,,,,,,,,,,,,,,,,,,,,,,,,,,,,,,,,,0,,,,1,10,42,10,1,11,Practice,Practice_N,waterfall.jpg,city.jpg,left,nl,c,Stimuli/Practice/OnionRed.jpg,11,1,neg,A,Neutral.png,Sad.png,,,,,,,,
,,26,001,2023-09-27_12h40.25.870,Experiment_Tuerk,2022.2.4,Win32,20.00080003,,,,,,,,,,,,,,,,,,,,,,,,,,,,,,,,,,,,,,,,,,,,,,,,,,,,,,,,,,,,,,,,,,,,,,,,,,,,,,,,,,,,,,,,,,,,,,,,,,,,,,,,,,,,,,,,,,,,,,,,,,,,,,,,,,,,c,1,0.7359,,,1,11,43,11,1,12,Practice,Practice_N,waterfall.jpg,city.jpg,left,nl,c,Stimuli/Practice/Stovetop.jpg,12,1,neg,A,Neutral.png,Sad.png,,,,,,,,
,,26,001,2023-09-27_12h40.25.870,Experiment_Tuerk,2022.2.4,Win32,20.00080003,,,,,,,,,,,,,,,,,,,,,,,,,,,,,,,,,,,,,,,,,,,,,,,,,,,,,,,,,,,,,,,,,,,,,,,,,,,,,,,,,,,,,,,,,,,,,,,,,,,,,,,,,,,,,,,,,,,,,,,,,,,,,,,,,,,,c,1,0.5397,,,1,12,44,12,1,13,Practice,Practice_N,waterfall.jpg,city.jpg,left,nl,c,Stimuli/Practice/LeatherPuncherTool.jpg,13,1,neg,A,Neutral.png,Sad.png,,,,,,,,
,,26,001,2023-09-27_12h40.25.870,Experiment_Tuerk,2022.2.4,Win32,20.00080003,,,,,,,,,,,,,,,,,,,,,,,,,,,,,,,,,,,,,,,,,,,,,,,,,,,,,,,,,,,,,,,,,,,,,,,,,,,,,,,,,,,,,,,,,,,,,,,,,,,,,,,,,,,,,,,,,,,,,,,,,,,,,,,,,,,,c,0,0.3117,,,1,13,45,13,1,14,Practice,Practice_N,city.jpg,waterfall.jpg,left,nl,m,Stimuli/Practice/FireAlarm.jpg,14,0,neg,A,Neutral.png,Sad.png,,,,,,,,
,,26,001,2023-09-27_12h40.25.870,Experiment_Tuerk,2022.2.4,Win32,20.00080003,,,,,,,,,,,,,,,,,,,,,,,,,,,,,,,,,,,,,,,,,,,,,,,,,,,,,,,,,,,,,,,,,,,,,,,,,,,,,,,,,,,,,,,,,,,,,,,,,,,,,,,,,,,,,,,,,,,,,,,,,,,,,,,,,,,,c,0,0.0019,,,1,14,46,14,1,15,Practice,Practice_N,waterfall.jpg,city.jpg,right,loss,m,Stimuli/Practice/Shoes_Snowboarding.jpg,15,1,neg,A,Neutral.png,Sad.png,,,,,,,,
,,26,001,2023-09-27_12h40.25.870,Experiment_Tuerk,2022.2.4,Win32,20.00080003,,,,,,,,,,,,,,,,,,,,,,,,,,,,,,,,,,,,,,,,,,,,,,,,,,,,,,,,,,,,,,,,,,,,,,,,,,,,,,,,,,,,,,,,,,,,,,,,,,,,,,,,,,,,,,,,,,,,,,,,,,,,,,,,,,,,m,1,0.0714,,,1,15,47,15,1,16,Practice,Practice_N,city.jpg,waterfall.jpg,left,nl,m,Stimuli/Practice/CarJack.jpg,16,0,neg,A,Neutral.png,Sad.png,,,,,,,,
,,26,001,2023-09-27_12h40.25.870,Experiment_Tuerk,2022.2.4,Win32,20.00080003,,,,,,,,,,,,,,,,,,,,,,,,,,,,,,,,,,,,,,,,,,,,,,,,,,,,,,,,,,,,,,,,,,,,,,,,,,,,,,,,,,,,,,,,,,,,,,,,,,,,,,,,,,,,,,,,,,,,,,,,,,,,,,,,,,,,c,0,0.3044,,,1,16,48,16,1,17,Practice,Practice_N,waterfall.jpg,city.jpg,right,nl,m,Stimuli/Practice/Pen_Calligraphy.jpg,17,0,neg,A,Neutral.png,Sad.png,,,,,,,,
,,26,001,2023-09-27_12h40.25.870,Experiment_Tuerk,2022.2.4,Win32,20.00080003,,,,,,,,,,,,,,,,,,,,,,,,,,,,,,,,,,,,,,,,,,,,,,,,,,,,,,,,,,,,,,,,,,,,,,,,,,,,,,,,,,,,,,,,,,,,,,,,,,,,,,,,,,,,,,,,,,,,,,,,,,,,,,,,,,,,c,0,0.2415,,,1,17,49,17,1,18,Practice,Practice_N,city.jpg,waterfall.jpg,left,loss,m,Stimuli/Practice/Container_Tupperware.jpg,18,1,neg,A,Neutral.png,Sad.png,,,,,,,,
,,26,001,2023-09-27_12h40.25.870,Experiment_Tuerk,2022.2.4,Win32,20.00080003,,,,,,,,,,,,,,,,,,,,,,,,,,,,,,,,,,,,,,,,,,,,,,,,,,,,,,,,,,,,,,,,,,,,,,,,,,,,,,,,,,,,,,,,,,,,,,,,,,,,,,,,,,,,,,,,,,,,,,,,,,,,,,,,,,,,m,1,0.2693,,,1,18,50,18,1,19,Practice,Practice_N,city.jpg,waterfall.jpg,left,loss,m,Stimuli/Practice/ClothCoaster.jpg,19,1,neg,A,Neutral.png,Sad.png,,,,,,,,
,,26,001,2023-09-27_12h40.25.870,Experiment_Tuerk,2022.2.4,Win32,20.00080003,,,,,,,,,,,,,,,,,,,,,,,,,,,,,,,,,,,,,,,,,,,,,,,,,,,,,,,,,,,,,,,,,,,,,,,,,,,,,,,,,,,,,,,,,,,,,,,,,,,,,,,,,,,,,,,,,,,,,,,,,,,,,,,,,,,,c,1,0.571,,,1,19,51,19,1,20,Practice,Practice_N,waterfall.jpg,city.jpg,left,nl,c,Stimuli/Practice/Kneepad.jpg,20,1,neg,A,Neutral.png,Sad.png,,,,,,,,
,,26,001,2023-09-27_12h40.25.870,Experiment_Tuerk,2022.2.4,Win32,20.00080003,,,,,,,,,,,,,,,,,,,,,,,,,,,,,,,,,,,,,,,,,,,,,,,,,,,,,,,,,,,,,,,,,,,,,,,,,,,,,,,,,,,,,,,,,,,,,,,,,,,,,,,,,,,,,,,,,,,,,,,,,,,,,,,,,,,,c,1,0.1332,,,1,20,52,20,1,21,Practice,Practice_N,city.jpg,waterfall.jpg,right,loss,c,Stimuli/Practice/Dill.jpg,21,0,neg,A,Neutral.png,Sad.png,,,,,,,,
,,26,001,2023-09-27_12h40.25.870,Experiment_Tuerk,2022.2.4,Win32,20.00080003,,,,,,,,,,,,,,,,,,,,,,,,,,,,,,,,,,,,,,,,,,,,,,,,,,,,,,,,,,,,,,,,,,,,,,,,,,,,,,,,,,,,,,,,,,,,,,,,,,,,,,,,,,,,,,,,,,,,,,,,,,,,,,,,,,,,m,0,0.0022,,,1,21,53,21,1,22,Practice,Practice_N,waterfall.jpg,city.jpg,left,nl,c,Stimuli/Practice/Clock_Radio.jpg,22,1,neg,A,Neutral.png,Sad.png,,,,,,,,
,,26,001,2023-09-27_12h40.25.870,Experiment_Tuerk,2022.2.4,Win32,20.00080003,,,,,,,,,,,,,,,,,,,,,,,,,,,,,,,,,,,,,,,,,,,,,,,,,,,,,,,,,,,,,,,,,,,,,,,,,,,,,,,,,,,,,,,,,,,,,,,,,,,,,,,,,,,,,,,,,,,,,,,,,,,,,,,,,,,,c,1,0.1349,,,1,22,54,22,1,23,Practice,Practice_N,waterfall.jpg,city.jpg,left,nl,c,Stimuli/Practice/Pajamas.jpg,23,1,neg,A,Neutral.png,Sad.png,,,,,,,,
,,26,001,2023-09-27_12h40.25.870,Experiment_Tuerk,2022.2.4,Win32,20.00080003,,,,,,,,,,,,,,,,,,,,,,,,,,,,,,,,,,,,,,,,,,,,,,,,,,,,,,,,,,,,,,,,,,,,,,,,,,,,,,,,,,,,,,,,,,,,,,,,,,,,,,,,,,,,,,,,,,,,,,,,,,,,,,,,,,,,c,0,0.2699,,,1,23,55,23,1,24,Practice,Practice_N,waterfall.jpg,city.jpg,right,loss,m,Stimuli/Practice/SoapBottle.jpg,24,1,neg,A,Neutral.png,Sad.png,,,,,,,,
,,26,001,2023-09-27_12h40.25.870,Experiment_Tuerk,2022.2.4,Win32,20.00080003,,,,,,,,,,,,,,,,,,,,,,,,,,,,,,,,,,,,,,,,,,,,,,,,,,,,,,,,,,,,,,,,,,,,,,,,,,,,,,,,,,,,,,,,,,,,,,,,,,,,,,,,,,,,,,,,,,,,,,,,,,,,,,,,,,,,m,1,0.002,,,1,24,56,24,1,25,Practice,Practice_N,city.jpg,waterfall.jpg,left,loss,m,Stimuli/Practice/ChessPiece_Bishop.jpg,25,1,neg,A,Neutral.png,Sad.png,,,,,,,,
,,26,001,2023-09-27_12h40.25.870,Experiment_Tuerk,2022.2.4,Win32,20.00080003,,,,,,,,,,,,,,,,,,,,,,,,,,,,,,,,,,,,,,,,,,,,,,,,,,,,,,,,,,,,,,,,,,,,,,,,,,,,,,,,,,,,,,,,,,,,,,,,,,,,,,,,,,,,,,,,,,,,,,,,,,,,,,,,,,,,c,0,0.0019,,,1,25,57,25,1,26,Practice,Practice_N,waterfall.jpg,city.jpg,right,loss,m,Stimuli/Practice/ToothbrushHolder.jpg,26,1,neg,A,Neutral.png,Sad.png,,,,,,,,
,,26,001,2023-09-27_12h40.25.870,Experiment_Tuerk,2022.2.4,Win32,20.00080003,,,,,,,,,,,,,,,,,,,,,,,,,,,,,,,,,,,,,,,,,,,,,,,,,,,,,,,,,,,,,,,,,,,,,,,,,,,,,,,,,,,,,,,,,,,,,,,,,,,,,,,,,,,,,,,,,,,,,,,,,,,,,,,,,,,,m,1,0.2709,,,1,26,58,26,1,27,Practice,Practice_N,city.jpg,waterfall.jpg,left,loss,m,Stimuli/Practice/BicycleBrake.jpg,27,1,neg,A,Neutral.png,Sad.png,,,,,,,,
,,26,001,2023-09-27_12h40.25.870,Experiment_Tuerk,2022.2.4,Win32,20.00080003,,,,,,,,,,,,,,,,,,,,,,,,,,,,,,,,,,,,,,,,,,,,,,,,,,,,,,,,,,,,,,,,,,,,,,,,,,,,,,,,,,,,,,,,,,,,,,,,,,,,,,,,,,,,,,,,,,,,,,,,,,,,,,,,,,,,c,1,0.3355,,,1,27,59,27,1,28,Practice,Practice_N,city.jpg,waterfall.jpg,right,nl,c,Stimuli/Practice/Grill_Electric.jpg,28,1,neg,A,Neutral.png,Sad.png,,,,,,,,
,,26,001,2023-09-27_12h40.25.870,Experiment_Tuerk,2022.2.4,Win32,20.00080003,,,,,,,,,,,,,,,,,,,,,,,,,,,,,,,,,,,,,,,,,,,,,,,,,,,,,,,,,,,,,,,,,,,,,,,,,,,,,,,,,,,,,,,,,,,,,,,,,,,,,,,,,,,,,,,,,,,,,,,,,,,,,,,,,,,,m,0,0.2674,,,1,28,60,28,1,29,Practice,Practice_N,waterfall.jpg,city.jpg,left,loss,c,Stimuli/Practice/Heater_Outdoor.jpg,29,0,neg,A,Neutral.png,Sad.png,,,,,,,,
,,26,001,2023-09-27_12h40.25.870,Experiment_Tuerk,2022.2.4,Win32,20.00080003,,,,,,,,,,,,,,,,,,,,,,,,,,,,,,,,,,,,,,,,,,,,,,,,,,,,,,,,,,,,,,,,,,,,,,,,,,,,,,,,,,,,,,,,,,,,,,,,,,,,,,,,,,,,,,,,,,,,,,,,,,,,,,,,,,,,c,1,0.2674,,,1,29,61,29,1,30,Practice,Practice_N,city.jpg,waterfall.jpg,right,nl,c,Stimuli/Practice/CrepeMaker.jpg,30,1,neg,A,Neutral.png,Sad.png,,,,,,,,
,,26,001,2023-09-27_12h40.25.870,Experiment_Tuerk,2022.2.4,Win32,20.00080003,,,,,,,,,,,,,,,,,,,,,,,,,,,,,,,,,,,,,,,,,,,,,,,,,,,,,,,,,,,,,,,,,,,,,,,,,,,,,,,,,,,,,,,,,,,,,,,,,,,,,,,,,,,,,,,,,,,,,,,,,,,,,,,,,,,,m,1,0.4026,,,1,30,62,30,1,31,Practice,Practice_N,city.jpg,waterfall.jpg,left,loss,m,Stimuli/Practice/BicyclePedal.jpg,31,1,neg,A,Neutral.png,Sad.png,,,,,,,,
,,26,001,2023-09-27_12h40.25.870,Experiment_Tuerk,2022.2.4,Win32,20.00080003,,,,,,,,,,,,,,,,,,,,,,,,,,,,,,,,,,,,,,,,,,,,,,,,,,,,,,,,,,,,,,,,,,,,,,,,,,,,,,,,,,,,,,,,,,,,,,,,,,,,,,,,,,,,,,,,,,,,,,,,,,,,,,,,,,,,m,0,0.2025,,,1,31,63,31,1,32,Practice,Practice_N,city.jpg,waterfall.jpg,right,nl,c,Stimuli/Practice/GrillRack.jpg,32,1,neg,A,Neutral.png,Sad.png,,0,0,0,0,1,0,159
