key_resp_beginning.keys,key_resp_beginning.rt,participant,session,date,expName,psychopyVersion,OS,frameRate,key_resp_instr_behavior.keys,key_resp_instr_behavior.rt,key_resp_instr_scales.keys,key_resp_instr_scales.rt,key_resp.keys,key_resp.rt,key_resp_instr_STAI_state_2.keys,key_resp_instr_STAI_state_2.rt,key_resp_STAI_state_test.keys,key_resp_STAI_state_test.rt,trials_STAI_state.thisRepN,trials_STAI_state.thisTrialN,trials_STAI_state.thisN,trials_STAI_state.thisIndex,trials_STAI_state.ran,text_STAI_state,control_STAI_state,Item_nr_STAI_state,rescore_STAI_state,key_resp_STAI_2.keys,key_resp_STAI_2.rt,key_resp_STAI_trait_test.keys,key_resp_STAI_trait_test.rt,trials_STAI_trait.thisRepN,trials_STAI_trait.thisTrialN,trials_STAI_trait.thisN,trials_STAI_trait.thisIndex,trials_STAI_trait.ran,text_STAI_trait,control_STAI_trait,Item_nr_STAI_trait,rescore_STAI_trait,STAILoop.thisRepN,STAILoop.thisTrialN,STAILoop.thisN,STAILoop.thisIndex,STAILoop.ran,OrderofScales.thisRepN,OrderofScales.thisTrialN,OrderofScales.thisN,OrderofScales.thisIndex,OrderofScales.ran,nRepsPANAS,nRepsBDI,nRepsSHAPS,nRepsSTAI,key_resp_BDI_1.keys,key_resp_BDI_1.rt,key_resp_BDI_2.keys,key_resp_BDI_2.rt,key_resp_BDI_trials.keys,key_resp_BDI_trials.rt,trials_BDI.thisRepN,trials_BDI.thisTrialN,trials_BDI.thisN,trials_BDI.thisIndex,trials_BDI.ran,Title_BDI,statement_1_BDI,statement_2_BDI,statement_3_BDI,statement_4_BDI,BDILoop.thisRepN,BDILoop.thisTrialN,BDILoop.thisN,BDILoop.thisIndex,BDILoop.ran,key_resp_Instr_SHAPS.keys,key_resp_Instr_SHAPS.rt,key_resp_SHAPS_test.keys,key_resp_SHAPS_test.rt,trials_SHAPS.thisRepN,trials_SHAPS.thisTrialN,trials_SHAPS.thisN,trials_SHAPS.thisIndex,trials_SHAPS.ran,statement_SHAPS,control_SHAPS,Item_nr_SHAPS,SHAPSLoop.thisRepN,SHAPSLoop.thisTrialN,SHAPSLoop.thisN,SHAPSLoop.thisIndex,SHAPSLoop.ran,key_resp_PANAS_1.keys,key_resp_PANAS_1.rt,key_resp_PANAS_test.keys,key_resp_PANAS_test.rt,trials_PANAS.thisRepN,trials_PANAS.thisTrialN,trials_PANAS.thisN,trials_PANAS.thisIndex,trials_PANAS.ran,adjective,posneg,panasnum,PANASLoop.thisRepN,PANASLoop.thisTrialN,PANASLoop.thisN,PANASLoop.thisIndex,PANASLoop.ran,key_resp_instr_Social_media_scale.keys,key_resp_instr_Social_media_scale.rt,key_resp_Social_media_scale_test.keys,key_resp_Social_media_scale_test.rt,Social_media_loop.thisRepN,Social_media_loop.thisTrialN,Social_media_loop.thisN,Social_media_loop.thisIndex,Social_media_loop.ran,Social_media_statement,Item_nr,key_resp_instr_1.keys,key_resp_instr_1.rt,key_resp_instr_2.keys,key_resp_instr_2.rt,key_resp_instr_3.keys,key_resp_instr_3.rt,key_resp_instr_4.keys,key_resp_instr_4.rt,key_resp_instr_5.keys,key_resp_instr_5.rt,key_resp_instr_6.keys,key_resp_instr_6.rt,key_resp_instr_7.keys,key_resp_instr_7.rt,key_resp_instr_8.keys,key_resp_instr_8.rt,key_resp_instr_9.keys,key_resp_instr_9.rt,key_resp_instr_practice_b.keys,key_resp_instr_practice_b.rt,key_resp_trial.keys,key_resp_trial.corr,key_resp_trial.rt,key_resp_repeat_practice.keys,key_resp_end_experiment.keys,Practice_B.thisRepN,Practice_B.thisTrialN,Practice_B.thisN,Practice_B.thisIndex,Practice_B.ran,Trial_nr,Block_nr,Block_cond,Symbol_left,Symbol_right,Highlighted,Outcome,corrAns,Image,Trial_within_block,Trial_cond,Block_value,key_ass,answer_left,answer_right,key_resp_repeat_practice.rt
space,1.4186,15,001,2023-09-27_12h45.40.745,Experiment_Tuerk,2022.2.4,Win32,60.08171113,,,,,,,,,,,,,,,,,,,,,,,,,,,,,,,,,,,,,,,,,,,,,,,,,,,,,,,,,,,,,,,,,,,,,,,,,,,,,,,,,,,,,,,,,,,,,,,,,,,,,,,,,,,,,,,,,,,,,,,,,,,,,,,,,,,,,,,,,,,,,,,,,,,,,,,,,,,,,,
,,15,001,2023-09-27_12h45.40.745,Experiment_Tuerk,2022.2.4,Win32,60.08171113,space,1.0754,,,,,,,,,,,,,,,,,,,,,,,,,,,,,,,,,,,,,,,,,,,,,,,,,,,,,,,,,,,,,,,,,,,,,,,,,,,,,,,,,,,,,,,,,,,,,,,,,,,,,,,,,,,,,,,,,,,,,,,,,,,,,,,,,,,,,,,,,,,,,,,,,,,,,,,,,,,,
,,15,001,2023-09-27_12h45.40.745,Experiment_Tuerk,2022.2.4,Win32,60.08171113,,,space,0.5171,,,,,,,,,,,,,,,,,,,,,,,,,,,,,,,,,,,,,,,,,,,,,,,,,,,,,,,,,,,,,,,,,,,,,,,,,,,,,,,,,,,,,,,,,,,,,,,,,,,,,,,,,,,,,,,,,,,,,,,,,,,,,,,,,,,,,,,,,,,,,,,,,,,,,,,,,,
,,15,001,2023-09-27_12h45.40.745,Experiment_Tuerk,2022.2.4,Win32,60.08171113,,,,,space,0.4541,space,0.6628,4,2.8641,0,0,0,0,1,1. I feel calm.,0,1,1,,,,,,,,,,,,,,,,,,,,,,,,,,,,,,,,,,,,,,,,,,,,,,,,,,,,,,,,,,,,,,,,,,,,,,,,,,,,,,,,,,,,,,,,,,,,,,,,,,,,,,,,,,,,,,,,,,,,,,,,,,,,,,,,,,,,,,,,,,,
,,15,001,2023-09-27_12h45.40.745,Experiment_Tuerk,2022.2.4,Win32,60.08171113,,,,,,,,,2,1.3488,0,1,1,1,1,2. I feel secure.,0,2,1,,,,,,,,,,,,,,,,,,,,,,,,,,,,,,,,,,,,,,,,,,,,,,,,,,,,,,,,,,,,,,,,,,,,,,,,,,,,,,,,,,,,,,,,,,,,,,,,,,,,,,,,,,,,,,,,,,,,,,,,,,,,,,,,,,,,,,,,,,,
,,15,001,2023-09-27_12h45.40.745,Experiment_Tuerk,2022.2.4,Win32,60.08171113,,,,,,,,,2,1.7847,0,2,2,2,1,3. I am tense.,0,3,0,,,,,,,,,,,,,,,,,,,,,,,,,,,,,,,,,,,,,,,,,,,,,,,,,,,,,,,,,,,,,,,,,,,,,,,,,,,,,,,,,,,,,,,,,,,,,,,,,,,,,,,,,,,,,,,,,,,,,,,,,,,,,,,,,,,,,,,,,,,
,,15,001,2023-09-27_12h45.40.745,Experiment_Tuerk,2022.2.4,Win32,60.08171113,,,,,,,,,2,0.9496,0,3,3,3,1,4. I feel strained. ,0,4,0,,,,,,,,,,,,,,,,,,,,,,,,,,,,,,,,,,,,,,,,,,,,,,,,,,,,,,,,,,,,,,,,,,,,,,,,,,,,,,,,,,,,,,,,,,,,,,,,,,,,,,,,,,,,,,,,,,,,,,,,,,,,,,,,,,,,,,,,,,,
,,15,001,2023-09-27_12h45.40.745,Experiment_Tuerk,2022.2.4,Win32,60.08171113,,,,,,,,,2,1.1674,0,4,4,4,1,5. I feel at ease.,0,5,1,,,,,,,,,,,,,,,,,,,,,,,,,,,,,,,,,,,,,,,,,,,,,,,,,,,,,,,,,,,,,,,,,,,,,,,,,,,,,,,,,,,,,,,,,,,,,,,,,,,,,,,,,,,,,,,,,,,,,,,,,,,,,,,,,,,,,,,,,,,
,,15,001,2023-09-27_12h45.40.745,Experiment_Tuerk,2022.2.4,Win32,60.08171113,,,,,,,,,2,0.1852,0,5,5,5,1,6. I feel upset.,0,6,0,,,,,,,,,,,,,,,,,,,,,,,,,,,,,,,,,,,,,,,,,,,,,,,,,,,,,,,,,,,,,,,,,,,,,,,,,,,,,,,,,,,,,,,,,,,,,,,,,,,,,,,,,,,,,,,,,,,,,,,,,,,,,,,,,,,,,,,,,,,
,,15,001,2023-09-27_12h45.40.745,Experiment_Tuerk,2022.2.4,Win32,60.08171113,,,,,,,,,4,2.9643,0,6,6,6,1,7. I am presently worrying over possible misfortunes.,0,7,0,,,,,,,,,,,,,,,,,,,,,,,,,,,,,,,,,,,,,,,,,,,,,,,,,,,,,,,,,,,,,,,,,,,,,,,,,,,,,,,,,,,,,,,,,,,,,,,,,,,,,,,,,,,,,,,,,,,,,,,,,,,,,,,,,,,,,,,,,,,
,,15,001,2023-09-27_12h45.40.745,Experiment_Tuerk,2022.2.4,Win32,60.08171113,,,,,,,,,2,0.868,0,7,7,7,1,8. I feel satisfied.,0,8,1,,,,,,,,,,,,,,,,,,,,,,,,,,,,,,,,,,,,,,,,,,,,,,,,,,,,,,,,,,,,,,,,,,,,,,,,,,,,,,,,,,,,,,,,,,,,,,,,,,,,,,,,,,,,,,,,,,,,,,,,,,,,,,,,,,,,,,,,,,,
,,15,001,2023-09-27_12h45.40.745,Experiment_Tuerk,2022.2.4,Win32,60.08171113,,,,,,,,,2,1.5166,0,8,8,8,1,9. I feel frightened.,0,9,0,,,,,,,,,,,,,,,,,,,,,,,,,,,,,,,,,,,,,,,,,,,,,,,,,,,,,,,,,,,,,,,,,,,,,,,,,,,,,,,,,,,,,,,,,,,,,,,,,,,,,,,,,,,,,,,,,,,,,,,,,,,,,,,,,,,,,,,,,,,
,,15,001,2023-09-27_12h45.40.745,Experiment_Tuerk,2022.2.4,Win32,60.08171113,,,,,,,,,3,1.7832,0,9,9,9,1,10. I feel comfortable.,0,10,1,,,,,,,,,,,,,,,,,,,,,,,,,,,,,,,,,,,,,,,,,,,,,,,,,,,,,,,,,,,,,,,,,,,,,,,,,,,,,,,,,,,,,,,,,,,,,,,,,,,,,,,,,,,,,,,,,,,,,,,,,,,,,,,,,,,,,,,,,,,
,,15,001,2023-09-27_12h45.40.745,Experiment_Tuerk,2022.2.4,Win32,60.08171113,,,,,,,,,1,1.5004,0,10,10,10,1,11. I feel self-confident.,0,11,1,,,,,,,,,,,,,,,,,,,,,,,,,,,,,,,,,,,,,,,,,,,,,,,,,,,,,,,,,,,,,,,,,,,,,,,,,,,,,,,,,,,,,,,,,,,,,,,,,,,,,,,,,,,,,,,,,,,,,,,,,,,,,,,,,,,,,,,,,,,
,,15,001,2023-09-27_12h45.40.745,Experiment_Tuerk,2022.2.4,Win32,60.08171113,,,,,,,,,2,4.9882,0,11,11,11,1,12. I feel nervous.,0,12,0,,,,,,,,,,,,,,,,,,,,,,,,,,,,,,,,,,,,,,,,,,,,,,,,,,,,,,,,,,,,,,,,,,,,,,,,,,,,,,,,,,,,,,,,,,,,,,,,,,,,,,,,,,,,,,,,,,,,,,,,,,,,,,,,,,,,,,,,,,,
,,15,001,2023-09-27_12h45.40.745,Experiment_Tuerk,2022.2.4,Win32,60.08171113,,,,,,,,,1,0.8198,0,12,12,12,1,13. I am jittery.,0,13,0,,,,,,,,,,,,,,,,,,,,,,,,,,,,,,,,,,,,,,,,,,,,,,,,,,,,,,,,,,,,,,,,,,,,,,,,,,,,,,,,,,,,,,,,,,,,,,,,,,,,,,,,,,,,,,,,,,,,,,,,,,,,,,,,,,,,,,,,,,,
,,15,001,2023-09-27_12h45.40.745,Experiment_Tuerk,2022.2.4,Win32,60.08171113,,,,,,,,,4,1.3977,0,13,13,13,1,14. I feel indecisive.,0,14,0,,,,,,,,,,,,,,,,,,,,,,,,,,,,,,,,,,,,,,,,,,,,,,,,,,,,,,,,,,,,,,,,,,,,,,,,,,,,,,,,,,,,,,,,,,,,,,,,,,,,,,,,,,,,,,,,,,,,,,,,,,,,,,,,,,,,,,,,,,,
,,15,001,2023-09-27_12h45.40.745,Experiment_Tuerk,2022.2.4,Win32,60.08171113,,,,,,,,,1,4.3603,0,14,14,14,1,15. I don't feel calm.,1,0,99,,,,,,,,,,,,,,,,,,,,,,,,,,,,,,,,,,,,,,,,,,,,,,,,,,,,,,,,,,,,,,,,,,,,,,,,,,,,,,,,,,,,,,,,,,,,,,,,,,,,,,,,,,,,,,,,,,,,,,,,,,,,,,,,,,,,,,,,,,,
,,15,001,2023-09-27_12h45.40.745,Experiment_Tuerk,2022.2.4,Win32,60.08171113,,,,,,,,,4,1.2017,0,15,15,15,1,16. I am relaxed.,0,15,1,,,,,,,,,,,,,,,,,,,,,,,,,,,,,,,,,,,,,,,,,,,,,,,,,,,,,,,,,,,,,,,,,,,,,,,,,,,,,,,,,,,,,,,,,,,,,,,,,,,,,,,,,,,,,,,,,,,,,,,,,,,,,,,,,,,,,,,,,,,
,,15,001,2023-09-27_12h45.40.745,Experiment_Tuerk,2022.2.4,Win32,60.08171113,,,,,,,,,3,1.5476,0,16,16,16,1,17. I feel content.,0,16,1,,,,,,,,,,,,,,,,,,,,,,,,,,,,,,,,,,,,,,,,,,,,,,,,,,,,,,,,,,,,,,,,,,,,,,,,,,,,,,,,,,,,,,,,,,,,,,,,,,,,,,,,,,,,,,,,,,,,,,,,,,,,,,,,,,,,,,,,,,,
,,15,001,2023-09-27_12h45.40.745,Experiment_Tuerk,2022.2.4,Win32,60.08171113,,,,,,,,,4,1.7043,0,17,17,17,1,18. I am worried.,0,17,0,,,,,,,,,,,,,,,,,,,,,,,,,,,,,,,,,,,,,,,,,,,,,,,,,,,,,,,,,,,,,,,,,,,,,,,,,,,,,,,,,,,,,,,,,,,,,,,,,,,,,,,,,,,,,,,,,,,,,,,,,,,,,,,,,,,,,,,,,,,
,,15,001,2023-09-27_12h45.40.745,Experiment_Tuerk,2022.2.4,Win32,60.08171113,,,,,,,,,4,1.0711,0,18,18,18,1,19. I feel confused.,0,18,0,,,,,,,,,,,,,,,,,,,,,,,,,,,,,,,,,,,,,,,,,,,,,,,,,,,,,,,,,,,,,,,,,,,,,,,,,,,,,,,,,,,,,,,,,,,,,,,,,,,,,,,,,,,,,,,,,,,,,,,,,,,,,,,,,,,,,,,,,,,
,,15,001,2023-09-27_12h45.40.745,Experiment_Tuerk,2022.2.4,Win32,60.08171113,,,,,,,,,1,1.1858,0,19,19,19,1,20. I don't feel upset.,1,0,99,,,,,,,,,,,,,,,,,,,,,,,,,,,,,,,,,,,,,,,,,,,,,,,,,,,,,,,,,,,,,,,,,,,,,,,,,,,,,,,,,,,,,,,,,,,,,,,,,,,,,,,,,,,,,,,,,,,,,,,,,,,,,,,,,,,,,,,,,,,
,,15,001,2023-09-27_12h45.40.745,Experiment_Tuerk,2022.2.4,Win32,60.08171113,,,,,,,,,1,5.8457,0,20,20,20,1,21. I feel steady.,0,19,1,,,,,,,,,,,,,,,,,,,,,,,,,,,,,,,,,,,,,,,,,,,,,,,,,,,,,,,,,,,,,,,,,,,,,,,,,,,,,,,,,,,,,,,,,,,,,,,,,,,,,,,,,,,,,,,,,,,,,,,,,,,,,,,,,,,,,,,,,,,
,,15,001,2023-09-27_12h45.40.745,Experiment_Tuerk,2022.2.4,Win32,60.08171113,,,,,,,,,2,1.3966,0,21,21,21,1,22. I feel pleasant.,0,20,1,,,,,,,,,,,,,,,,,,,,,,,,,,,,,,,,,,,,,,,,,,,,,,,,,,,,,,,,,,,,,,,,,,,,,,,,,,,,,,,,,,,,,,,,,,,,,,,,,,,,,,,,,,,,,,,,,,,,,,,,,,,,,,,,,,,,,,,,,,,
,,15,001,2023-09-27_12h45.40.745,Experiment_Tuerk,2022.2.4,Win32,60.08171113,,,,,,,,,,,,,,,,,,,,space,1.4896,2,7.0662,0,0,0,0,1,21. I feel pleasant.,0,21,1,,,,,,,,,,,,,,,,,,,,,,,,,,,,,,,,,,,,,,,,,,,,,,,,,,,,,,,,,,,,,,,,,,,,,,,,,,,,,,,,,,,,,,,,,,,,,,,,,,,,,,,,,,,,,,,,,,,,,,,,,,,,,,
,,15,001,2023-09-27_12h45.40.745,Experiment_Tuerk,2022.2.4,Win32,60.08171113,,,,,,,,,,,,,,,,,,,,,,4,2.3615,0,1,1,1,1,22. I feel nervous and restless.,0,22,0,,,,,,,,,,,,,,,,,,,,,,,,,,,,,,,,,,,,,,,,,,,,,,,,,,,,,,,,,,,,,,,,,,,,,,,,,,,,,,,,,,,,,,,,,,,,,,,,,,,,,,,,,,,,,,,,,,,,,,,,,,,,,,
,,15,001,2023-09-27_12h45.40.745,Experiment_Tuerk,2022.2.4,Win32,60.08171113,,,,,,,,,,,,,,,,,,,,,,2,1.2418,0,2,2,2,1,23. I feel satisfied with myself.,0,23,1,,,,,,,,,,,,,,,,,,,,,,,,,,,,,,,,,,,,,,,,,,,,,,,,,,,,,,,,,,,,,,,,,,,,,,,,,,,,,,,,,,,,,,,,,,,,,,,,,,,,,,,,,,,,,,,,,,,,,,,,,,,,,,
,,15,001,2023-09-27_12h45.40.745,Experiment_Tuerk,2022.2.4,Win32,60.08171113,,,,,,,,,,,,,,,,,,,,,,4,1.7226,0,3,3,3,1,24. I wish I could be as happy as others seem to be.,0,24,0,,,,,,,,,,,,,,,,,,,,,,,,,,,,,,,,,,,,,,,,,,,,,,,,,,,,,,,,,,,,,,,,,,,,,,,,,,,,,,,,,,,,,,,,,,,,,,,,,,,,,,,,,,,,,,,,,,,,,,,,,,,,,,
,,15,001,2023-09-27_12h45.40.745,Experiment_Tuerk,2022.2.4,Win32,60.08171113,,,,,,,,,,,,,,,,,,,,,,4,4.12,0,4,4,4,1,25. I feel like a failure.,0,25,0,,,,,,,,,,,,,,,,,,,,,,,,,,,,,,,,,,,,,,,,,,,,,,,,,,,,,,,,,,,,,,,,,,,,,,,,,,,,,,,,,,,,,,,,,,,,,,,,,,,,,,,,,,,,,,,,,,,,,,,,,,,,,,
,,15,001,2023-09-27_12h45.40.745,Experiment_Tuerk,2022.2.4,Win32,60.08171113,,,,,,,,,,,,,,,,,,,,,,2,2.0783,0,5,5,5,1,26. I feel rested.,0,26,1,,,,,,,,,,,,,,,,,,,,,,,,,,,,,,,,,,,,,,,,,,,,,,,,,,,,,,,,,,,,,,,,,,,,,,,,,,,,,,,,,,,,,,,,,,,,,,,,,,,,,,,,,,,,,,,,,,,,,,,,,,,,,,
,,15,001,2023-09-27_12h45.40.745,Experiment_Tuerk,2022.2.4,Win32,60.08171113,,,,,,,,,,,,,,,,,,,,,,1,1.4879,0,6,6,6,1,"27. I am ""calm, cool, and collected"".",0,27,1,,,,,,,,,,,,,,,,,,,,,,,,,,,,,,,,,,,,,,,,,,,,,,,,,,,,,,,,,,,,,,,,,,,,,,,,,,,,,,,,,,,,,,,,,,,,,,,,,,,,,,,,,,,,,,,,,,,,,,,,,,,,,,
,,15,001,2023-09-27_12h45.40.745,Experiment_Tuerk,2022.2.4,Win32,60.08171113,,,,,,,,,,,,,,,,,,,,,,4,4.0369,0,7,7,7,1,28. I feel that difficulties are piling up so that I cannot overcome them.,0,28,0,,,,,,,,,,,,,,,,,,,,,,,,,,,,,,,,,,,,,,,,,,,,,,,,,,,,,,,,,,,,,,,,,,,,,,,,,,,,,,,,,,,,,,,,,,,,,,,,,,,,,,,,,,,,,,,,,,,,,,,,,,,,,,
,,15,001,2023-09-27_12h45.40.745,Experiment_Tuerk,2022.2.4,Win32,60.08171113,,,,,,,,,,,,,,,,,,,,,,4,2.4444,0,8,8,8,1,"29. If you are still paying attention to the test, please press the number four.",1,0,99,,,,,,,,,,,,,,,,,,,,,,,,,,,,,,,,,,,,,,,,,,,,,,,,,,,,,,,,,,,,,,,,,,,,,,,,,,,,,,,,,,,,,,,,,,,,,,,,,,,,,,,,,,,,,,,,,,,,,,,,,,,,,,
,,15,001,2023-09-27_12h45.40.745,Experiment_Tuerk,2022.2.4,Win32,60.08171113,,,,,,,,,,,,,,,,,,,,,,4,2.7748,0,9,9,9,1,30. I worry too much over something that really doesn't matter.,0,29,0,,,,,,,,,,,,,,,,,,,,,,,,,,,,,,,,,,,,,,,,,,,,,,,,,,,,,,,,,,,,,,,,,,,,,,,,,,,,,,,,,,,,,,,,,,,,,,,,,,,,,,,,,,,,,,,,,,,,,,,,,,,,,,
,,15,001,2023-09-27_12h45.40.745,Experiment_Tuerk,2022.2.4,Win32,60.08171113,,,,,,,,,,,,,,,,,,,,,,2,0.9138,0,10,10,10,1,31. I am happy.,0,30,1,,,,,,,,,,,,,,,,,,,,,,,,,,,,,,,,,,,,,,,,,,,,,,,,,,,,,,,,,,,,,,,,,,,,,,,,,,,,,,,,,,,,,,,,,,,,,,,,,,,,,,,,,,,,,,,,,,,,,,,,,,,,,,
,,15,001,2023-09-27_12h45.40.745,Experiment_Tuerk,2022.2.4,Win32,60.08171113,,,,,,,,,,,,,,,,,,,,,,4,1.9569,0,11,11,11,1,32. I have disturbing thoughts.,0,31,0,,,,,,,,,,,,,,,,,,,,,,,,,,,,,,,,,,,,,,,,,,,,,,,,,,,,,,,,,,,,,,,,,,,,,,,,,,,,,,,,,,,,,,,,,,,,,,,,,,,,,,,,,,,,,,,,,,,,,,,,,,,,,,
,,15,001,2023-09-27_12h45.40.745,Experiment_Tuerk,2022.2.4,Win32,60.08171113,,,,,,,,,,,,,,,,,,,,,,4,2.2556,0,12,12,12,1,33. I lack self-confidence.,0,32,0,,,,,,,,,,,,,,,,,,,,,,,,,,,,,,,,,,,,,,,,,,,,,,,,,,,,,,,,,,,,,,,,,,,,,,,,,,,,,,,,,,,,,,,,,,,,,,,,,,,,,,,,,,,,,,,,,,,,,,,,,,,,,,
,,15,001,2023-09-27_12h45.40.745,Experiment_Tuerk,2022.2.4,Win32,60.08171113,,,,,,,,,,,,,,,,,,,,,,1,1.24,0,13,13,13,1,34. I feel secure.,0,33,1,,,,,,,,,,,,,,,,,,,,,,,,,,,,,,,,,,,,,,,,,,,,,,,,,,,,,,,,,,,,,,,,,,,,,,,,,,,,,,,,,,,,,,,,,,,,,,,,,,,,,,,,,,,,,,,,,,,,,,,,,,,,,,
,,15,001,2023-09-27_12h45.40.745,Experiment_Tuerk,2022.2.4,Win32,60.08171113,,,,,,,,,,,,,,,,,,,,,,1,4.9763,0,14,14,14,1,35. I make decisions easily.,0,34,1,,,,,,,,,,,,,,,,,,,,,,,,,,,,,,,,,,,,,,,,,,,,,,,,,,,,,,,,,,,,,,,,,,,,,,,,,,,,,,,,,,,,,,,,,,,,,,,,,,,,,,,,,,,,,,,,,,,,,,,,,,,,,,
,,15,001,2023-09-27_12h45.40.745,Experiment_Tuerk,2022.2.4,Win32,60.08171113,,,,,,,,,,,,,,,,,,,,,,1,3.6561,0,15,15,15,1,36. I feel inadequate.,0,35,0,,,,,,,,,,,,,,,,,,,,,,,,,,,,,,,,,,,,,,,,,,,,,,,,,,,,,,,,,,,,,,,,,,,,,,,,,,,,,,,,,,,,,,,,,,,,,,,,,,,,,,,,,,,,,,,,,,,,,,,,,,,,,,
,,15,001,2023-09-27_12h45.40.745,Experiment_Tuerk,2022.2.4,Win32,60.08171113,,,,,,,,,,,,,,,,,,,,,,1,3.7032,0,16,16,16,1,37. I don't feel nervous.,1,0,99,,,,,,,,,,,,,,,,,,,,,,,,,,,,,,,,,,,,,,,,,,,,,,,,,,,,,,,,,,,,,,,,,,,,,,,,,,,,,,,,,,,,,,,,,,,,,,,,,,,,,,,,,,,,,,,,,,,,,,,,,,,,,,
,,15,001,2023-09-27_12h45.40.745,Experiment_Tuerk,2022.2.4,Win32,60.08171113,,,,,,,,,,,,,,,,,,,,,,2,1.5202,0,17,17,17,1,38. I am content.,0,36,1,,,,,,,,,,,,,,,,,,,,,,,,,,,,,,,,,,,,,,,,,,,,,,,,,,,,,,,,,,,,,,,,,,,,,,,,,,,,,,,,,,,,,,,,,,,,,,,,,,,,,,,,,,,,,,,,,,,,,,,,,,,,,,
,,15,001,2023-09-27_12h45.40.745,Experiment_Tuerk,2022.2.4,Win32,60.08171113,,,,,,,,,,,,,,,,,,,,,,4,3.1784,0,18,18,18,1,39. Some unimportant thought runs through my mind and bothers me.,0,37,0,,,,,,,,,,,,,,,,,,,,,,,,,,,,,,,,,,,,,,,,,,,,,,,,,,,,,,,,,,,,,,,,,,,,,,,,,,,,,,,,,,,,,,,,,,,,,,,,,,,,,,,,,,,,,,,,,,,,,,,,,,,,,,
,,15,001,2023-09-27_12h45.40.745,Experiment_Tuerk,2022.2.4,Win32,60.08171113,,,,,,,,,,,,,,,,,,,,,,4,3.5691,0,19,19,19,1,40. I take disappointments so keenly that I can't put them out of my mind.,0,38,0,,,,,,,,,,,,,,,,,,,,,,,,,,,,,,,,,,,,,,,,,,,,,,,,,,,,,,,,,,,,,,,,,,,,,,,,,,,,,,,,,,,,,,,,,,,,,,,,,,,,,,,,,,,,,,,,,,,,,,,,,,,,,,
,,15,001,2023-09-27_12h45.40.745,Experiment_Tuerk,2022.2.4,Win32,60.08171113,,,,,,,,,,,,,,,,,,,,,,1,1.1973,0,20,20,20,1,41. I am a steady person.,0,39,1,,,,,,,,,,,,,,,,,,,,,,,,,,,,,,,,,,,,,,,,,,,,,,,,,,,,,,,,,,,,,,,,,,,,,,,,,,,,,,,,,,,,,,,,,,,,,,,,,,,,,,,,,,,,,,,,,,,,,,,,,,,,,,
,,15,001,2023-09-27_12h45.40.745,Experiment_Tuerk,2022.2.4,Win32,60.08171113,,,,,,,,,,,,,,,,,,,,,,4,4.55,0,21,21,21,1,42. I get in a state of tension or turmoil as I think over my recent concerns and interests.,0,40,0,,,,,,,,,,,,,,,,,,,,,,,,,,,,,,,,,,,,,,,,,,,,,,,,,,,,,,,,,,,,,,,,,,,,,,,,,,,,,,,,,,,,,,,,,,,,,,,,,,,,,,,,,,,,,,,,,,,,,,,,,,,,,,
,,15,001,2023-09-27_12h45.40.745,Experiment_Tuerk,2022.2.4,Win32,60.08171113,,,,,,,,,,,,,,,,,,,,,,,,,,,,,,,,,0,0,0,0,1,,,,,,,,,,,,,,,,,,,,,,,,,,,,,,,,,,,,,,,,,,,,,,,,,,,,,,,,,,,,,,,,,,,,,,,,,,,,,,,,,,,,,,,,,,,,,,,,,,,,,,,,,,,,,,,,,,,,,,,,,
,,15,001,2023-09-27_12h45.40.745,Experiment_Tuerk,2022.2.4,Win32,60.08171113,,,,,,,,,,,,,,,,,,,,,,,,,,,,,,,,,,,,,,0,0,0,3,1,0,0,0,1,,,,,,,,,,,,,,,,,,,,,,,,,,,,,,,,,,,,,,,,,,,,,,,,,,,,,,,,,,,,,,,,,,,,,,,,,,,,,,,,,,,,,,,,,,,,,,,,,,,,,,,,,,,,,,,,
,,15,001,2023-09-27_12h45.40.745,Experiment_Tuerk,2022.2.4,Win32,60.08171113,,,,,,,,,,,,,,,,,,,,,,,,,,,,,,,,,,,,,,,,,,,,,,,space,1.4412,space,1.2726,2,3.9904,0,0,0,0,1,1. Sadness,0-I do not feel sad.,1-I feel sad much of the time.,2-I am sad all the time.,3-I am so sad or unhappy that I can't stand it.,,,,,,,,,,,,,,,,,,,,,,,,,,,,,,,,,,,,,,,,,,,,,,,,,,,,,,,,,,,,,,,,,,,,,,,,,,,,,,,,,,,,,,,,,,,,,,,,
,,15,001,2023-09-27_12h45.40.745,Experiment_Tuerk,2022.2.4,Win32,60.08171113,,,,,,,,,,,,,,,,,,,,,,,,,,,,,,,,,,,,,,,,,,,,,,,,,,,2,4.6952,0,1,1,1,1,2. Pessimism,0-I am not  discouraged about my future.,1-I feel more discouraged about my future than I used to.,2-I do not expect things to work out for me.,3-I feel my future is hopeless and will only get worse.,,,,,,,,,,,,,,,,,,,,,,,,,,,,,,,,,,,,,,,,,,,,,,,,,,,,,,,,,,,,,,,,,,,,,,,,,,,,,,,,,,,,,,,,,,,,,,,,
,,15,001,2023-09-27_12h45.40.745,Experiment_Tuerk,2022.2.4,Win32,60.08171113,,,,,,,,,,,,,,,,,,,,,,,,,,,,,,,,,,,,,,,,,,,,,,,,,,,2,5.6385,0,2,2,2,1,3. Past failure,0-I do not feel like a failure.,1-I have failed more than I should have.,"2-As I look back, I see a lot of failures.",3-I feel I am a total failure as a person.,,,,,,,,,,,,,,,,,,,,,,,,,,,,,,,,,,,,,,,,,,,,,,,,,,,,,,,,,,,,,,,,,,,,,,,,,,,,,,,,,,,,,,,,,,,,,,,,
,,15,001,2023-09-27_12h45.40.745,Experiment_Tuerk,2022.2.4,Win32,60.08171113,,,,,,,,,,,,,,,,,,,,,,,,,,,,,,,,,,,,,,,,,,,,,,,,,,,0,5.2815,0,3,3,3,1,4. Loss of Pleasure,0-I get as much pleasure as I ever did from the things I enjoy.,1-I don't enjoy things as much as I used to.,2-I get very little pleasure from the things I used to enjoy.,3-I can't get any pleasure from the things I used to enjoy.,,,,,,,,,,,,,,,,,,,,,,,,,,,,,,,,,,,,,,,,,,,,,,,,,,,,,,,,,,,,,,,,,,,,,,,,,,,,,,,,,,,,,,,,,,,,,,,,
,,15,001,2023-09-27_12h45.40.745,Experiment_Tuerk,2022.2.4,Win32,60.08171113,,,,,,,,,,,,,,,,,,,,,,,,,,,,,,,,,,,,,,,,,,,,,,,,,,,2,3.1653,0,4,4,4,1,5. Guilty feelings,0-I don't feel particularly guilty.,1-I feel guilty over many things I have done or should have done.,2-I feel quite guilty most of the time.,3-I feel guilty all of the time.,,,,,,,,,,,,,,,,,,,,,,,,,,,,,,,,,,,,,,,,,,,,,,,,,,,,,,,,,,,,,,,,,,,,,,,,,,,,,,,,,,,,,,,,,,,,,,,,
,,15,001,2023-09-27_12h45.40.745,Experiment_Tuerk,2022.2.4,Win32,60.08171113,,,,,,,,,,,,,,,,,,,,,,,,,,,,,,,,,,,,,,,,,,,,,,,,,,,2,1.9251,0,5,5,5,1,6. Punishment feelings,0-I don't feel I am being punished.,1-I feel I may be punished.,2-I expect to be punished.,3-I feel I am being punished.,,,,,,,,,,,,,,,,,,,,,,,,,,,,,,,,,,,,,,,,,,,,,,,,,,,,,,,,,,,,,,,,,,,,,,,,,,,,,,,,,,,,,,,,,,,,,,,,
,,15,001,2023-09-27_12h45.40.745,Experiment_Tuerk,2022.2.4,Win32,60.08171113,,,,,,,,,,,,,,,,,,,,,,,,,,,,,,,,,,,,,,,,,,,,,,,,,,,2,3.2548,0,6,6,6,1,7. Self-dislike,0-I feel the same about myself as ever.,1-I have lost confidence in myself.,2-I am disappointed in myself.,3-I dislike myself.,,,,,,,,,,,,,,,,,,,,,,,,,,,,,,,,,,,,,,,,,,,,,,,,,,,,,,,,,,,,,,,,,,,,,,,,,,,,,,,,,,,,,,,,,,,,,,,,
,,15,001,2023-09-27_12h45.40.745,Experiment_Tuerk,2022.2.4,Win32,60.08171113,,,,,,,,,,,,,,,,,,,,,,,,,,,,,,,,,,,,,,,,,,,,,,,,,,,3,2.5868,0,7,7,7,1,8. Self-criticalness,0-I don't criticize or blame myself more than usual.,1-I am more critical of myself than I used to be.,2-I criticize myself for all of my faults.,3-I blame myself for everything bad that happens.,,,,,,,,,,,,,,,,,,,,,,,,,,,,,,,,,,,,,,,,,,,,,,,,,,,,,,,,,,,,,,,,,,,,,,,,,,,,,,,,,,,,,,,,,,,,,,,,
,,15,001,2023-09-27_12h45.40.745,Experiment_Tuerk,2022.2.4,Win32,60.08171113,,,,,,,,,,,,,,,,,,,,,,,,,,,,,,,,,,,,,,,,,,,,,,,,,,,0,1.868,0,8,8,8,1,9. Suicidal thoughts or wishes,0-I don't have any thoughts of killing myself.,"1-I have thoughts of killing myself, but I would not carry them out.",2-I would like to kill myself.,3-I would kill myself if I had the chance.,,,,,,,,,,,,,,,,,,,,,,,,,,,,,,,,,,,,,,,,,,,,,,,,,,,,,,,,,,,,,,,,,,,,,,,,,,,,,,,,,,,,,,,,,,,,,,,,
,,15,001,2023-09-27_12h45.40.745,Experiment_Tuerk,2022.2.4,Win32,60.08171113,,,,,,,,,,,,,,,,,,,,,,,,,,,,,,,,,,,,,,,,,,,,,,,,,,,2,2.5191,0,9,9,9,1,10. Crying,0-I don't cry anymore than I used to.,1-I cry more than I used to.,2-I cry over every little thing.,"3-I feel like crying, but I can't.",,,,,,,,,,,,,,,,,,,,,,,,,,,,,,,,,,,,,,,,,,,,,,,,,,,,,,,,,,,,,,,,,,,,,,,,,,,,,,,,,,,,,,,,,,,,,,,,
,,15,001,2023-09-27_12h45.40.745,Experiment_Tuerk,2022.2.4,Win32,60.08171113,,,,,,,,,,,,,,,,,,,,,,,,,,,,,,,,,,,,,,,,,,,,,,,,,,,1,4.7242,0,10,10,10,1,11. Agitation,0-I am no more restless or wound up than usual.,1-I feel more restless or wound up than usual.,"2-I am so restless or agitated, it's hard to stay still.",3-I am so restless or agitated that I have to keep moving or doing something.,,,,,,,,,,,,,,,,,,,,,,,,,,,,,,,,,,,,,,,,,,,,,,,,,,,,,,,,,,,,,,,,,,,,,,,,,,,,,,,,,,,,,,,,,,,,,,,,
,,15,001,2023-09-27_12h45.40.745,Experiment_Tuerk,2022.2.4,Win32,60.08171113,,,,,,,,,,,,,,,,,,,,,,,,,,,,,,,,,,,,,,,,,,,,,,,,,,,0,3.9293,0,11,11,11,1,12. Loss of Interest,0-I have not lost interest in other people or activities.,1-I am less interested in other people or things than before.,2-I have lost most of my interest in other people or things.,3-It's hard to get interested in anything.,,,,,,,,,,,,,,,,,,,,,,,,,,,,,,,,,,,,,,,,,,,,,,,,,,,,,,,,,,,,,,,,,,,,,,,,,,,,,,,,,,,,,,,,,,,,,,,,
,,15,001,2023-09-27_12h45.40.745,Experiment_Tuerk,2022.2.4,Win32,60.08171113,,,,,,,,,,,,,,,,,,,,,,,,,,,,,,,,,,,,,,,,,,,,,,,,,,,3,2.8091,0,12,12,12,1,13. Indecisiveness,0-I make decisions about as well as ever.,1-I find it more difficult to make decisions than usual.,2-I have much greater difficulty in making decisions than I used to.,3-I have trouble making any decisions.,,,,,,,,,,,,,,,,,,,,,,,,,,,,,,,,,,,,,,,,,,,,,,,,,,,,,,,,,,,,,,,,,,,,,,,,,,,,,,,,,,,,,,,,,,,,,,,,
,,15,001,2023-09-27_12h45.40.745,Experiment_Tuerk,2022.2.4,Win32,60.08171113,,,,,,,,,,,,,,,,,,,,,,,,,,,,,,,,,,,,,,,,,,,,,,,,,,,2,2.8513,0,13,13,13,1,14. Worthlessness,0-I do not feel I am worthless.,1-I don't consider myself as worthwhile and useful as I used to.,2-I feel more worthless as compared to others.,3-I feel utterly worthless.,,,,,,,,,,,,,,,,,,,,,,,,,,,,,,,,,,,,,,,,,,,,,,,,,,,,,,,,,,,,,,,,,,,,,,,,,,,,,,,,,,,,,,,,,,,,,,,,
,,15,001,2023-09-27_12h45.40.745,Experiment_Tuerk,2022.2.4,Win32,60.08171113,,,,,,,,,,,,,,,,,,,,,,,,,,,,,,,,,,,,,,,,,,,,,,,,,,,2,2.9015,0,14,14,14,1,15. Loss of energy,0-I have as much energy as ever.,1-I have less energy than I used to have.,2-I don't have enough energy to do very much.,3-I don't have enough energy to do anything.,,,,,,,,,,,,,,,,,,,,,,,,,,,,,,,,,,,,,,,,,,,,,,,,,,,,,,,,,,,,,,,,,,,,,,,,,,,,,,,,,,,,,,,,,,,,,,,,
,,15,001,2023-09-27_12h45.40.745,Experiment_Tuerk,2022.2.4,Win32,60.08171113,,,,,,,,,,,,,,,,,,,,,,,,,,,,,,,,,,,,,,,,,,,,,,,,,,,0,4.8515,0,15,15,15,1,16. Changes in sleeping pattern,0-I have not experienced any change in my sleeping.,"1a-I sleep somewhat more than usual.
1b-I sleep somewhat less than usual.","2a-I sleep a lot more than usual.
2b-I sleep a lot less than usual.","3a-I sleep most of the day.
3b-I wake up 1-2 hours early and can't get back to sleep.",,,,,,,,,,,,,,,,,,,,,,,,,,,,,,,,,,,,,,,,,,,,,,,,,,,,,,,,,,,,,,,,,,,,,,,,,,,,,,,,,,,,,,,,,,,,,,,,
,,15,001,2023-09-27_12h45.40.745,Experiment_Tuerk,2022.2.4,Win32,60.08171113,,,,,,,,,,,,,,,,,,,,,,,,,,,,,,,,,,,,,,,,,,,,,,,,,,,0,2.389,0,16,16,16,1,17. Irritability,0-I am not more irritable than usual.,1-I am more irritable than usual.,2-I am much more irritable than usual.,3-I am irritable all the time.,,,,,,,,,,,,,,,,,,,,,,,,,,,,,,,,,,,,,,,,,,,,,,,,,,,,,,,,,,,,,,,,,,,,,,,,,,,,,,,,,,,,,,,,,,,,,,,,
,,15,001,2023-09-27_12h45.40.745,Experiment_Tuerk,2022.2.4,Win32,60.08171113,,,,,,,,,,,,,,,,,,,,,,,,,,,,,,,,,,,,,,,,,,,,,,,,,,,3,1.8718,0,17,17,17,1,18. Changes in Appetite,0-I have not experienced any change in my appetite.,"1a-My appetite is somewhat less than usual.
1b-My appetite is somewhat greater than usual.","2a-My appetite is much less than before.
2b-My appetite is much greater than usual.","3a-I have no appetite at all.
3b-I crave food all the time.",,,,,,,,,,,,,,,,,,,,,,,,,,,,,,,,,,,,,,,,,,,,,,,,,,,,,,,,,,,,,,,,,,,,,,,,,,,,,,,,,,,,,,,,,,,,,,,,
,,15,001,2023-09-27_12h45.40.745,Experiment_Tuerk,2022.2.4,Win32,60.08171113,,,,,,,,,,,,,,,,,,,,,,,,,,,,,,,,,,,,,,,,,,,,,,,,,,,1,4.6005,0,18,18,18,1,19. Concentration difficulty,0-I can concentrate as well as ever.,1-I can't concentrate as well as usual.,2-It's hard to keep my mind on anything for very long.,3-I find I can't concentrate on anything.,,,,,,,,,,,,,,,,,,,,,,,,,,,,,,,,,,,,,,,,,,,,,,,,,,,,,,,,,,,,,,,,,,,,,,,,,,,,,,,,,,,,,,,,,,,,,,,,
,,15,001,2023-09-27_12h45.40.745,Experiment_Tuerk,2022.2.4,Win32,60.08171113,,,,,,,,,,,,,,,,,,,,,,,,,,,,,,,,,,,,,,,,,,,,,,,,,,,2,3.2421,0,19,19,19,1,20. Tiredness or fatigue,0-I am no more tired or fatigued than usual.,1-I get more tired or fatigued more easily than usual.,2-I am too tired or fatigued to do a lot of the things I used to do.,3-I am too tired or fatigued to do most of the things I used to do.,,,,,,,,,,,,,,,,,,,,,,,,,,,,,,,,,,,,,,,,,,,,,,,,,,,,,,,,,,,,,,,,,,,,,,,,,,,,,,,,,,,,,,,,,,,,,,,,
,,15,001,2023-09-27_12h45.40.745,Experiment_Tuerk,2022.2.4,Win32,60.08171113,,,,,,,,,,,,,,,,,,,,,,,,,,,,,,,,,,,,,,,,,,,,,,,,,,,0,4.6809,0,20,20,20,1,21. Loss of interest in sex,0-I have not noticed any recent change in my interest in sex.,1-I am less interested in sex than I used to be.,2-I am much less interested in sex now.,3-I have lost interest in sex completely.,,,,,,,,,,,,,,,,,,,,,,,,,,,,,,,,,,,,,,,,,,,,,,,,,,,,,,,,,,,,,,,,,,,,,,,,,,,,,,,,,,,,,,,,,,,,,,,,
,,15,001,2023-09-27_12h45.40.745,Experiment_Tuerk,2022.2.4,Win32,60.08171113,,,,,,,,,,,,,,,,,,,,,,,,,,,,,,,,,,,,,,,,,,,,,,,,,,,,,,,,,,,,,,,0,0,0,0,1,,,,,,,,,,,,,,,,,,,,,,,,,,,,,,,,,,,,,,,,,,,,,,,,,,,,,,,,,,,,,,,,,,,,,,,,,,,,,,,,,,,,,,,,,,,
,,15,001,2023-09-27_12h45.40.745,Experiment_Tuerk,2022.2.4,Win32,60.08171113,,,,,,,,,,,,,,,,,,,,,,,,,,,,,,,,,,,,,,0,1,1,1,1,0,1,0,0,,,,,,,,,,,,,,,,,,,,,,,,,,,,,,,,,,,,,,,,,,,,,,,,,,,,,,,,,,,,,,,,,,,,,,,,,,,,,,,,,,,,,,,,,,,,,,,,,,,,,,,,,,,,,,,,
,,15,001,2023-09-27_12h45.40.745,Experiment_Tuerk,2022.2.4,Win32,60.08171113,,,,,,,,,,,,,,,,,,,,,,,,,,,,,,,,,,,,,,,,,,,,,,,,,,,,,,,,,,,,,,,,,,,,space,1.0734,4,5.0565,0,0,0,0,1,1. I would enjoy my favourite television or radio programme: ,0,1,,,,,,,,,,,,,,,,,,,,,,,,,,,,,,,,,,,,,,,,,,,,,,,,,,,,,,,,,,,,,,,,,,,,,,,,,,,,,,,
,,15,001,2023-09-27_12h45.40.745,Experiment_Tuerk,2022.2.4,Win32,60.08171113,,,,,,,,,,,,,,,,,,,,,,,,,,,,,,,,,,,,,,,,,,,,,,,,,,,,,,,,,,,,,,,,,,,,,,4,1.7014,0,1,1,1,1,2. I would enjoy being with my family or close friends: ,0,2,,,,,,,,,,,,,,,,,,,,,,,,,,,,,,,,,,,,,,,,,,,,,,,,,,,,,,,,,,,,,,,,,,,,,,,,,,,,,,,
,,15,001,2023-09-27_12h45.40.745,Experiment_Tuerk,2022.2.4,Win32,60.08171113,,,,,,,,,,,,,,,,,,,,,,,,,,,,,,,,,,,,,,,,,,,,,,,,,,,,,,,,,,,,,,,,,,,,,,4,4.0936,0,2,2,2,1,3. I would find pleasure in my hobbies and pastime: ,0,3,,,,,,,,,,,,,,,,,,,,,,,,,,,,,,,,,,,,,,,,,,,,,,,,,,,,,,,,,,,,,,,,,,,,,,,,,,,,,,,
,,15,001,2023-09-27_12h45.40.745,Experiment_Tuerk,2022.2.4,Win32,60.08171113,,,,,,,,,,,,,,,,,,,,,,,,,,,,,,,,,,,,,,,,,,,,,,,,,,,,,,,,,,,,,,,,,,,,,,4,2.1634,0,3,3,3,1,4. I would not be able to enjoy small things like a sunny day or a phone call from a friend:,1,0,,,,,,,,,,,,,,,,,,,,,,,,,,,,,,,,,,,,,,,,,,,,,,,,,,,,,,,,,,,,,,,,,,,,,,,,,,,,,,,
,,15,001,2023-09-27_12h45.40.745,Experiment_Tuerk,2022.2.4,Win32,60.08171113,,,,,,,,,,,,,,,,,,,,,,,,,,,,,,,,,,,,,,,,,,,,,,,,,,,,,,,,,,,,,,,,,,,,,,4,4.7179,0,4,4,4,1,5. I would be able to enjoy my favourite meal:,0,4,,,,,,,,,,,,,,,,,,,,,,,,,,,,,,,,,,,,,,,,,,,,,,,,,,,,,,,,,,,,,,,,,,,,,,,,,,,,,,,
,,15,001,2023-09-27_12h45.40.745,Experiment_Tuerk,2022.2.4,Win32,60.08171113,,,,,,,,,,,,,,,,,,,,,,,,,,,,,,,,,,,,,,,,,,,,,,,,,,,,,,,,,,,,,,,,,,,,,,4,0.7972,0,5,5,5,1,6. I would enjoy a warm bath or refreshing shower:,0,5,,,,,,,,,,,,,,,,,,,,,,,,,,,,,,,,,,,,,,,,,,,,,,,,,,,,,,,,,,,,,,,,,,,,,,,,,,,,,,,
,,15,001,2023-09-27_12h45.40.745,Experiment_Tuerk,2022.2.4,Win32,60.08171113,,,,,,,,,,,,,,,,,,,,,,,,,,,,,,,,,,,,,,,,,,,,,,,,,,,,,,,,,,,,,,,,,,,,,,4,2.1629,0,6,6,6,1,7. I would find pleasure in the scent of flowers or the smell of a fresh sea breeze or freshly baked bread:,0,6,,,,,,,,,,,,,,,,,,,,,,,,,,,,,,,,,,,,,,,,,,,,,,,,,,,,,,,,,,,,,,,,,,,,,,,,,,,,,,,
,,15,001,2023-09-27_12h45.40.745,Experiment_Tuerk,2022.2.4,Win32,60.08171113,,,,,,,,,,,,,,,,,,,,,,,,,,,,,,,,,,,,,,,,,,,,,,,,,,,,,,,,,,,,,,,,,,,,,,4,1.2299,0,7,7,7,1,8. I would enjoy seeing other people's smiling faces:,0,7,,,,,,,,,,,,,,,,,,,,,,,,,,,,,,,,,,,,,,,,,,,,,,,,,,,,,,,,,,,,,,,,,,,,,,,,,,,,,,,
,,15,001,2023-09-27_12h45.40.745,Experiment_Tuerk,2022.2.4,Win32,60.08171113,,,,,,,,,,,,,,,,,,,,,,,,,,,,,,,,,,,,,,,,,,,,,,,,,,,,,,,,,,,,,,,,,,,,,,4,1.5648,0,8,8,8,1,9. I would enjoy looking smart when I have made an effort with my appearance:,0,8,,,,,,,,,,,,,,,,,,,,,,,,,,,,,,,,,,,,,,,,,,,,,,,,,,,,,,,,,,,,,,,,,,,,,,,,,,,,,,,
,,15,001,2023-09-27_12h45.40.745,Experiment_Tuerk,2022.2.4,Win32,60.08171113,,,,,,,,,,,,,,,,,,,,,,,,,,,,,,,,,,,,,,,,,,,,,,,,,,,,,,,,,,,,,,,,,,,,,,4,1.1306,0,9,9,9,1,"10. I would enjoy reading a book, magazine or newspaper:",0,9,,,,,,,,,,,,,,,,,,,,,,,,,,,,,,,,,,,,,,,,,,,,,,,,,,,,,,,,,,,,,,,,,,,,,,,,,,,,,,,
,,15,001,2023-09-27_12h45.40.745,Experiment_Tuerk,2022.2.4,Win32,60.08171113,,,,,,,,,,,,,,,,,,,,,,,,,,,,,,,,,,,,,,,,,,,,,,,,,,,,,,,,,,,,,,,,,,,,,,1,3.6459,0,10,10,10,1,"11. If you are still attentive to the test, please press the number one:",1,0,,,,,,,,,,,,,,,,,,,,,,,,,,,,,,,,,,,,,,,,,,,,,,,,,,,,,,,,,,,,,,,,,,,,,,,,,,,,,,,
,,15,001,2023-09-27_12h45.40.745,Experiment_Tuerk,2022.2.4,Win32,60.08171113,,,,,,,,,,,,,,,,,,,,,,,,,,,,,,,,,,,,,,,,,,,,,,,,,,,,,,,,,,,,,,,,,,,,,,4,3.2287,0,11,11,11,1,12. I would enjoy a cup of tea or coffee or my favourite drink:,0,10,,,,,,,,,,,,,,,,,,,,,,,,,,,,,,,,,,,,,,,,,,,,,,,,,,,,,,,,,,,,,,,,,,,,,,,,,,,,,,,
,,15,001,2023-09-27_12h45.40.745,Experiment_Tuerk,2022.2.4,Win32,60.08171113,,,,,,,,,,,,,,,,,,,,,,,,,,,,,,,,,,,,,,,,,,,,,,,,,,,,,,,,,,,,,,,,,,,,,,4,1.3508,0,12,12,12,1,"13. I would find pleasure in small things, e.g. bright sunny day, a telephone call from a friend:",0,11,,,,,,,,,,,,,,,,,,,,,,,,,,,,,,,,,,,,,,,,,,,,,,,,,,,,,,,,,,,,,,,,,,,,,,,,,,,,,,,
,,15,001,2023-09-27_12h45.40.745,Experiment_Tuerk,2022.2.4,Win32,60.08171113,,,,,,,,,,,,,,,,,,,,,,,,,,,,,,,,,,,,,,,,,,,,,,,,,,,,,,,,,,,,,,,,,,,,,,4,0.9155,0,13,13,13,1,14. I would be able to enjoy a beautiful landscape or view: ,0,12,,,,,,,,,,,,,,,,,,,,,,,,,,,,,,,,,,,,,,,,,,,,,,,,,,,,,,,,,,,,,,,,,,,,,,,,,,,,,,,
,,15,001,2023-09-27_12h45.40.745,Experiment_Tuerk,2022.2.4,Win32,60.08171113,,,,,,,,,,,,,,,,,,,,,,,,,,,,,,,,,,,,,,,,,,,,,,,,,,,,,,,,,,,,,,,,,,,,,,4,1.1977,0,14,14,14,1,15. I would not enjoy my favourite television or radio programme:,1,0,,,,,,,,,,,,,,,,,,,,,,,,,,,,,,,,,,,,,,,,,,,,,,,,,,,,,,,,,,,,,,,,,,,,,,,,,,,,,,,
,,15,001,2023-09-27_12h45.40.745,Experiment_Tuerk,2022.2.4,Win32,60.08171113,,,,,,,,,,,,,,,,,,,,,,,,,,,,,,,,,,,,,,,,,,,,,,,,,,,,,,,,,,,,,,,,,,,,,,4,1.4479,0,15,15,15,1,16. I would get pleasure from helping others:,0,13,,,,,,,,,,,,,,,,,,,,,,,,,,,,,,,,,,,,,,,,,,,,,,,,,,,,,,,,,,,,,,,,,,,,,,,,,,,,,,,
,,15,001,2023-09-27_12h45.40.745,Experiment_Tuerk,2022.2.4,Win32,60.08171113,,,,,,,,,,,,,,,,,,,,,,,,,,,,,,,,,,,,,,,,,,,,,,,,,,,,,,,,,,,,,,,,,,,,,,4,1.1645,0,16,16,16,1,17. I would feel pleasure when I receive praise from other people:,0,14,,,,,,,,,,,,,,,,,,,,,,,,,,,,,,,,,,,,,,,,,,,,,,,,,,,,,,,,,,,,,,,,,,,,,,,,,,,,,,,
,,15,001,2023-09-27_12h45.40.745,Experiment_Tuerk,2022.2.4,Win32,60.08171113,,,,,,,,,,,,,,,,,,,,,,,,,,,,,,,,,,,,,,,,,,,,,,,,,,,,,,,,,,,,,,,,,,,,,,,,,,,,,,,,0,0,0,0,1,,,,,,,,,,,,,,,,,,,,,,,,,,,,,,,,,,,,,,,,,,,,,,,,,,,,,,,,,,,,,,,,,,,,,,,,,,
,,15,001,2023-09-27_12h45.40.745,Experiment_Tuerk,2022.2.4,Win32,60.08171113,,,,,,,,,,,,,,,,,,,,,,,,,,,,,,,,,,,,,,0,2,2,2,1,0,0,1,0,,,,,,,,,,,,,,,,,,,,,,,,,,,,,,,,,,,,,,,,,,,,,,,,,,,,,,,,,,,,,,,,,,,,,,,,,,,,,,,,,,,,,,,,,,,,,,,,,,,,,,,,,,,,,,,,
,,15,001,2023-09-27_12h45.40.745,Experiment_Tuerk,2022.2.4,Win32,60.08171113,,,,,,,,,,,,,,,,,,,,,,,,,,,,,,,,,,,,,,,,,,,,,,,,,,,,,,,,,,,,,,,,,,,,,,,,,,,,,,,,,,,,,space,1.9014,3,3.071,0,0,0,0,1,interested,pos,1,,,,,,,,,,,,,,,,,,,,,,,,,,,,,,,,,,,,,,,,,,,,,,,,,,,,,,,,,,,,,,
,,15,001,2023-09-27_12h45.40.745,Experiment_Tuerk,2022.2.4,Win32,60.08171113,,,,,,,,,,,,,,,,,,,,,,,,,,,,,,,,,,,,,,,,,,,,,,,,,,,,,,,,,,,,,,,,,,,,,,,,,,,,,,,,,,,,,,,2,1.2718,0,1,1,1,1,distressed,neg,2,,,,,,,,,,,,,,,,,,,,,,,,,,,,,,,,,,,,,,,,,,,,,,,,,,,,,,,,,,,,,,
,,15,001,2023-09-27_12h45.40.745,Experiment_Tuerk,2022.2.4,Win32,60.08171113,,,,,,,,,,,,,,,,,,,,,,,,,,,,,,,,,,,,,,,,,,,,,,,,,,,,,,,,,,,,,,,,,,,,,,,,,,,,,,,,,,,,,,,2,1.3893,0,2,2,2,1,excited,pos,1,,,,,,,,,,,,,,,,,,,,,,,,,,,,,,,,,,,,,,,,,,,,,,,,,,,,,,,,,,,,,,
,,15,001,2023-09-27_12h45.40.745,Experiment_Tuerk,2022.2.4,Win32,60.08171113,,,,,,,,,,,,,,,,,,,,,,,,,,,,,,,,,,,,,,,,,,,,,,,,,,,,,,,,,,,,,,,,,,,,,,,,,,,,,,,,,,,,,,,2,1.3893,0,3,3,3,1,upset,neg,2,,,,,,,,,,,,,,,,,,,,,,,,,,,,,,,,,,,,,,,,,,,,,,,,,,,,,,,,,,,,,,
,,15,001,2023-09-27_12h45.40.745,Experiment_Tuerk,2022.2.4,Win32,60.08171113,,,,,,,,,,,,,,,,,,,,,,,,,,,,,,,,,,,,,,,,,,,,,,,,,,,,,,,,,,,,,,,,,,,,,,,,,,,,,,,,,,,,,,,3,1.2459,0,4,4,4,1,strong,pos,1,,,,,,,,,,,,,,,,,,,,,,,,,,,,,,,,,,,,,,,,,,,,,,,,,,,,,,,,,,,,,,
,,15,001,2023-09-27_12h45.40.745,Experiment_Tuerk,2022.2.4,Win32,60.08171113,,,,,,,,,,,,,,,,,,,,,,,,,,,,,,,,,,,,,,,,,,,,,,,,,,,,,,,,,,,,,,,,,,,,,,,,,,,,,,,,,,,,,,,3,1.2547,0,5,5,5,1,guilty,neg,2,,,,,,,,,,,,,,,,,,,,,,,,,,,,,,,,,,,,,,,,,,,,,,,,,,,,,,,,,,,,,,
,,15,001,2023-09-27_12h45.40.745,Experiment_Tuerk,2022.2.4,Win32,60.08171113,,,,,,,,,,,,,,,,,,,,,,,,,,,,,,,,,,,,,,,,,,,,,,,,,,,,,,,,,,,,,,,,,,,,,,,,,,,,,,,,,,,,,,,4,2.3725,0,6,6,6,1,scared,neg,2,,,,,,,,,,,,,,,,,,,,,,,,,,,,,,,,,,,,,,,,,,,,,,,,,,,,,,,,,,,,,,
,,15,001,2023-09-27_12h45.40.745,Experiment_Tuerk,2022.2.4,Win32,60.08171113,,,,,,,,,,,,,,,,,,,,,,,,,,,,,,,,,,,,,,,,,,,,,,,,,,,,,,,,,,,,,,,,,,,,,,,,,,,,,,,,,,,,,,,1,3.3208,0,7,7,7,1,hostile,neg,2,,,,,,,,,,,,,,,,,,,,,,,,,,,,,,,,,,,,,,,,,,,,,,,,,,,,,,,,,,,,,,
,,15,001,2023-09-27_12h45.40.745,Experiment_Tuerk,2022.2.4,Win32,60.08171113,,,,,,,,,,,,,,,,,,,,,,,,,,,,,,,,,,,,,,,,,,,,,,,,,,,,,,,,,,,,,,,,,,,,,,,,,,,,,,,,,,,,,,,2,1.2406,0,8,8,8,1,enthusiastic,pos,1,,,,,,,,,,,,,,,,,,,,,,,,,,,,,,,,,,,,,,,,,,,,,,,,,,,,,,,,,,,,,,
,,15,001,2023-09-27_12h45.40.745,Experiment_Tuerk,2022.2.4,Win32,60.08171113,,,,,,,,,,,,,,,,,,,,,,,,,,,,,,,,,,,,,,,,,,,,,,,,,,,,,,,,,,,,,,,,,,,,,,,,,,,,,,,,,,,,,,,3,1.7732,0,9,9,9,1,proud,pos,1,,,,,,,,,,,,,,,,,,,,,,,,,,,,,,,,,,,,,,,,,,,,,,,,,,,,,,,,,,,,,,
,,15,001,2023-09-27_12h45.40.745,Experiment_Tuerk,2022.2.4,Win32,60.08171113,,,,,,,,,,,,,,,,,,,,,,,,,,,,,,,,,,,,,,,,,,,,,,,,,,,,,,,,,,,,,,,,,,,,,,,,,,,,,,,,,,,,,,,4,1.3562,0,10,10,10,1,irritable,neg,2,,,,,,,,,,,,,,,,,,,,,,,,,,,,,,,,,,,,,,,,,,,,,,,,,,,,,,,,,,,,,,
,,15,001,2023-09-27_12h45.40.745,Experiment_Tuerk,2022.2.4,Win32,60.08171113,,,,,,,,,,,,,,,,,,,,,,,,,,,,,,,,,,,,,,,,,,,,,,,,,,,,,,,,,,,,,,,,,,,,,,,,,,,,,,,,,,,,,,,5,1.2401,0,11,11,11,1,alert,pos,1,,,,,,,,,,,,,,,,,,,,,,,,,,,,,,,,,,,,,,,,,,,,,,,,,,,,,,,,,,,,,,
,,15,001,2023-09-27_12h45.40.745,Experiment_Tuerk,2022.2.4,Win32,60.08171113,,,,,,,,,,,,,,,,,,,,,,,,,,,,,,,,,,,,,,,,,,,,,,,,,,,,,,,,,,,,,,,,,,,,,,,,,,,,,,,,,,,,,,,5,1.9722,0,12,12,12,1,ashamed,neg,2,,,,,,,,,,,,,,,,,,,,,,,,,,,,,,,,,,,,,,,,,,,,,,,,,,,,,,,,,,,,,,
,,15,001,2023-09-27_12h45.40.745,Experiment_Tuerk,2022.2.4,Win32,60.08171113,,,,,,,,,,,,,,,,,,,,,,,,,,,,,,,,,,,,,,,,,,,,,,,,,,,,,,,,,,,,,,,,,,,,,,,,,,,,,,,,,,,,,,,4,1.3929,0,13,13,13,1,inspired,pos,1,,,,,,,,,,,,,,,,,,,,,,,,,,,,,,,,,,,,,,,,,,,,,,,,,,,,,,,,,,,,,,
,,15,001,2023-09-27_12h45.40.745,Experiment_Tuerk,2022.2.4,Win32,60.08171113,,,,,,,,,,,,,,,,,,,,,,,,,,,,,,,,,,,,,,,,,,,,,,,,,,,,,,,,,,,,,,,,,,,,,,,,,,,,,,,,,,,,,,,2,1.0914,0,14,14,14,1,nervous,neg,2,,,,,,,,,,,,,,,,,,,,,,,,,,,,,,,,,,,,,,,,,,,,,,,,,,,,,,,,,,,,,,
,,15,001,2023-09-27_12h45.40.745,Experiment_Tuerk,2022.2.4,Win32,60.08171113,,,,,,,,,,,,,,,,,,,,,,,,,,,,,,,,,,,,,,,,,,,,,,,,,,,,,,,,,,,,,,,,,,,,,,,,,,,,,,,,,,,,,,,4,1.6135,0,15,15,15,1,determined,pos,1,,,,,,,,,,,,,,,,,,,,,,,,,,,,,,,,,,,,,,,,,,,,,,,,,,,,,,,,,,,,,,
,,15,001,2023-09-27_12h45.40.745,Experiment_Tuerk,2022.2.4,Win32,60.08171113,,,,,,,,,,,,,,,,,,,,,,,,,,,,,,,,,,,,,,,,,,,,,,,,,,,,,,,,,,,,,,,,,,,,,,,,,,,,,,,,,,,,,,,4,1.988,0,16,16,16,1,attentive,pos,1,,,,,,,,,,,,,,,,,,,,,,,,,,,,,,,,,,,,,,,,,,,,,,,,,,,,,,,,,,,,,,
,,15,001,2023-09-27_12h45.40.745,Experiment_Tuerk,2022.2.4,Win32,60.08171113,,,,,,,,,,,,,,,,,,,,,,,,,,,,,,,,,,,,,,,,,,,,,,,,,,,,,,,,,,,,,,,,,,,,,,,,,,,,,,,,,,,,,,,1,0.6808,0,17,17,17,1,jittery,neg,2,,,,,,,,,,,,,,,,,,,,,,,,,,,,,,,,,,,,,,,,,,,,,,,,,,,,,,,,,,,,,,
,,15,001,2023-09-27_12h45.40.745,Experiment_Tuerk,2022.2.4,Win32,60.08171113,,,,,,,,,,,,,,,,,,,,,,,,,,,,,,,,,,,,,,,,,,,,,,,,,,,,,,,,,,,,,,,,,,,,,,,,,,,,,,,,,,,,,,,3,1.6467,0,18,18,18,1,active,pos,1,,,,,,,,,,,,,,,,,,,,,,,,,,,,,,,,,,,,,,,,,,,,,,,,,,,,,,,,,,,,,,
,,15,001,2023-09-27_12h45.40.745,Experiment_Tuerk,2022.2.4,Win32,60.08171113,,,,,,,,,,,,,,,,,,,,,,,,,,,,,,,,,,,,,,,,,,,,,,,,,,,,,,,,,,,,,,,,,,,,,,,,,,,,,,,,,,,,,,,4,1.3707,0,19,19,19,1,afraid,neg,2,,,,,,,,,,,,,,,,,,,,,,,,,,,,,,,,,,,,,,,,,,,,,,,,,,,,,,,,,,,,,,
,,15,001,2023-09-27_12h45.40.745,Experiment_Tuerk,2022.2.4,Win32,60.08171113,,,,,,,,,,,,,,,,,,,,,,,,,,,,,,,,,,,,,,,,,,,,,,,,,,,,,,,,,,,,,,,,,,,,,,,,,,,,,,,,,,,,,,,,,,,,,,,,,0,0,0,0,1,,,,,,,,,,,,,,,,,,,,,,,,,,,,,,,,,,,,,,,,,,,,,,,,,,,,,,,,,
,,15,001,2023-09-27_12h45.40.745,Experiment_Tuerk,2022.2.4,Win32,60.08171113,,,,,,,,,,,,,,,,,,,,,,,,,,,,,,,,,,,,,,0,3,3,0,1,1,0,0,0,,,,,,,,,,,,,,,,,,,,,,,,,,,,,,,,,,,,,,,,,,,,,,,,,,,,,,,,,,,,,,,,,,,,,,,,,,,,,,,,,,,,,,,,,,,,,,,,,,,,,,,,,,,,,,,,
,,15,001,2023-09-27_12h45.40.745,Experiment_Tuerk,2022.2.4,Win32,60.08171113,,,,,,,,,,,,,,,,,,,,,,,,,,,,,,,,,,,,,,,,,,,,,,,,,,,,,,,,,,,,,,,,,,,,,,,,,,,,,,,,,,,,,,,,,,,,,,,,,,,,,,space,1.1375,,,,,,,,,,,,,,,,,,,,,,,,,,,,,,,,,,,,,,,,,,,,,,,,,,,,,,,
,,15,001,2023-09-27_12h45.40.745,Experiment_Tuerk,2022.2.4,Win32,60.08171113,,,,,,,,,,,,,,,,,,,,,,,,,,,,,,,,,,,,,,,,,,,,,,,,,,,,,,,,,,,,,,,,,,,,,,,,,,,,,,,,,,,,,,,,,,,,,,,,,,,,,,,,6,5.7856,0,0,0,0,1,1. I feel disconnected from friends when I have not logged into social media.,1,,,,,,,,,,,,,,,,,,,,,,,,,,,,,,,,,,,,,,,,,,,,,,
,,15,001,2023-09-27_12h45.40.745,Experiment_Tuerk,2022.2.4,Win32,60.08171113,,,,,,,,,,,,,,,,,,,,,,,,,,,,,,,,,,,,,,,,,,,,,,,,,,,,,,,,,,,,,,,,,,,,,,,,,,,,,,,,,,,,,,,,,,,,,,,,,,,,,,,,3,2.2094,0,1,1,1,1,2. I would like if if everyone used social media to communicate.,2,,,,,,,,,,,,,,,,,,,,,,,,,,,,,,,,,,,,,,,,,,,,,,
,,15,001,2023-09-27_12h45.40.745,Experiment_Tuerk,2022.2.4,Win32,60.08171113,,,,,,,,,,,,,,,,,,,,,,,,,,,,,,,,,,,,,,,,,,,,,,,,,,,,,,,,,,,,,,,,,,,,,,,,,,,,,,,,,,,,,,,,,,,,,,,,,,,,,,,,6,2.0532,0,2,2,2,1,3. I would be disappointed if I could not use social media at all.,3,,,,,,,,,,,,,,,,,,,,,,,,,,,,,,,,,,,,,,,,,,,,,,
,,15,001,2023-09-27_12h45.40.745,Experiment_Tuerk,2022.2.4,Win32,60.08171113,,,,,,,,,,,,,,,,,,,,,,,,,,,,,,,,,,,,,,,,,,,,,,,,,,,,,,,,,,,,,,,,,,,,,,,,,,,,,,,,,,,,,,,,,,,,,,,,,,,,,,,,2,3.5948,0,3,3,3,1,4. I get upset when I can't log on to social media.,4,,,,,,,,,,,,,,,,,,,,,,,,,,,,,,,,,,,,,,,,,,,,,,
,,15,001,2023-09-27_12h45.40.745,Experiment_Tuerk,2022.2.4,Win32,60.08171113,,,,,,,,,,,,,,,,,,,,,,,,,,,,,,,,,,,,,,,,,,,,,,,,,,,,,,,,,,,,,,,,,,,,,,,,,,,,,,,,,,,,,,,,,,,,,,,,,,,,,,,,6,3.9341,0,4,4,4,1,5. I prefer to communicate with others mainly through social media.,5,,,,,,,,,,,,,,,,,,,,,,,,,,,,,,,,,,,,,,,,,,,,,,
,,15,001,2023-09-27_12h45.40.745,Experiment_Tuerk,2022.2.4,Win32,60.08171113,,,,,,,,,,,,,,,,,,,,,,,,,,,,,,,,,,,,,,,,,,,,,,,,,,,,,,,,,,,,,,,,,,,,,,,,,,,,,,,,,,,,,,,,,,,,,,,,,,,,,,,,6,3.2291,0,5,5,5,1,6. Social media plays an important role in my social relationships.,6,,,,,,,,,,,,,,,,,,,,,,,,,,,,,,,,,,,,,,,,,,,,,,
,,15,001,2023-09-27_12h45.40.745,Experiment_Tuerk,2022.2.4,Win32,60.08171113,,,,,,,,,,,,,,,,,,,,,,,,,,,,,,,,,,,,,,,,,,,,,,,,,,,,,,,,,,,,,,,,,,,,,,,,,,,,,,,,,,,,,,,,,,,,,,,,,,,,,,,,6,3.101,0,6,6,6,1,7. I enjoy checking my social media account(s).,7,,,,,,,,,,,,,,,,,,,,,,,,,,,,,,,,,,,,,,,,,,,,,,
,,15,001,2023-09-27_12h45.40.745,Experiment_Tuerk,2022.2.4,Win32,60.08171113,,,,,,,,,,,,,,,,,,,,,,,,,,,,,,,,,,,,,,,,,,,,,,,,,,,,,,,,,,,,,,,,,,,,,,,,,,,,,,,,,,,,,,,,,,,,,,,,,,,,,,,,2,2.7405,0,7,7,7,1,8. I don't like to use social media.,8,,,,,,,,,,,,,,,,,,,,,,,,,,,,,,,,,,,,,,,,,,,,,,
,,15,001,2023-09-27_12h45.40.745,Experiment_Tuerk,2022.2.4,Win32,60.08171113,,,,,,,,,,,,,,,,,,,,,,,,,,,,,,,,,,,,,,,,,,,,,,,,,,,,,,,,,,,,,,,,,,,,,,,,,,,,,,,,,,,,,,,,,,,,,,,,,,,,,,,,6,1.922,0,8,8,8,1,9. Using social media is part of my everyday routine.,9,,,,,,,,,,,,,,,,,,,,,,,,,,,,,,,,,,,,,,,,,,,,,,
,,15,001,2023-09-27_12h45.40.745,Experiment_Tuerk,2022.2.4,Win32,60.08171113,,,,,,,,,,,,,,,,,,,,,,,,,,,,,,,,,,,,,,,,,,,,,,,,,,,,,,,,,,,,,,,,,,,,,,,,,,,,,,,,,,,,,,,,,,,,,,,,,,,,,,,,1,2.3375,0,9,9,9,1,10. I respond to content that others share using social media.,10,,,,,,,,,,,,,,,,,,,,,,,,,,,,,,,,,,,,,,,,,,,,,,
,,15,001,2023-09-27_12h45.40.745,Experiment_Tuerk,2022.2.4,Win32,60.08171113,,,,,,,,,,,,,,,,,,,,,,,,,,,,,,,,,,,,,,,,,,,,,,,,,,,,,,,,,,,,,,,,,,,,,,,,,,,,,,,,,,,,,,,,,,,,,,,,,,,,,,,,,,,,,,,,,,,,,,,,,,,,,,,,,,,,,,,,,,,,,,,,,,,,,,,,,,,,,,
,,15,001,2023-09-27_12h45.40.745,Experiment_Tuerk,2022.2.4,Win32,60.08171113,,,,,,,,,,,,,,,,,,,,,,,,,,,,,,,,,,,,,,,,,,,,,,,,,,,,,,,,,,,,,,,,,,,,,,,,,,,,,,,,,,,,,,,,,,,,,,,,,,,,,,,,,,,,,,,,,space,23.4501,,,,,,,,,,,,,,,,,,,,,,,,,,,,,,,,,,,,,,,,,,,,
,,15,001,2023-09-27_12h45.40.745,Experiment_Tuerk,2022.2.4,Win32,60.08171113,,,,,,,,,,,,,,,,,,,,,,,,,,,,,,,,,,,,,,,,,,,,,,,,,,,,,,,,,,,,,,,,,,,,,,,,,,,,,,,,,,,,,,,,,,,,,,,,,,,,,,,,,,,,,,,,,,,space,16.2957,,,,,,,,,,,,,,,,,,,,,,,,,,,,,,,,,,,,,,,,,,
,,15,001,2023-09-27_12h45.40.745,Experiment_Tuerk,2022.2.4,Win32,60.08171113,,,,,,,,,,,,,,,,,,,,,,,,,,,,,,,,,,,,,,,,,,,,,,,,,,,,,,,,,,,,,,,,,,,,,,,,,,,,,,,,,,,,,,,,,,,,,,,,,,,,,,,,,,,,,,,,,,,,,space,44.1708,,,,,,,,,,,,,,,,,,,,,,,,,,,,,,,,,,,,,,,,
,,15,001,2023-09-27_12h45.40.745,Experiment_Tuerk,2022.2.4,Win32,60.08171113,,,,,,,,,,,,,,,,,,,,,,,,,,,,,,,,,,,,,,,,,,,,,,,,,,,,,,,,,,,,,,,,,,,,,,,,,,,,,,,,,,,,,,,,,,,,,,,,,,,,,,,,,,,,,,,,,,,,,,,space,4.1853,,,,,,,,,,,,,,,,,,,,,,,,,,,,,,,,,,,,,,
,,15,001,2023-09-27_12h45.40.745,Experiment_Tuerk,2022.2.4,Win32,60.08171113,,,,,,,,,,,,,,,,,,,,,,,,,,,,,,,,,,,,,,,,,,,,,,,,,,,,,,,,,,,,,,,,,,,,,,,,,,,,,,,,,,,,,,,,,,,,,,,,,,,,,,,,,,,,,,,,,,,,,,,,,space,11.8527,,,,,,,,,,,,,,,,,,,,,,,,,,,,,,,,,,,,
,,15,001,2023-09-27_12h45.40.745,Experiment_Tuerk,2022.2.4,Win32,60.08171113,,,,,,,,,,,,,,,,,,,,,,,,,,,,,,,,,,,,,,,,,,,,,,,,,,,,,,,,,,,,,,,,,,,,,,,,,,,,,,,,,,,,,,,,,,,,,,,,,,,,,,,,,,,,,,,,,,,,,,,,,,,space,13.0726,,,,,,,,,,,,,,,,,,,,,,,,,,,,,,,,,,
,,15,001,2023-09-27_12h45.40.745,Experiment_Tuerk,2022.2.4,Win32,60.08171113,,,,,,,,,,,,,,,,,,,,,,,,,,,,,,,,,,,,,,,,,,,,,,,,,,,,,,,,,,,,,,,,,,,,,,,,,,,,,,,,,,,,,,,,,,,,,,,,,,,,,,,,,,,,,,,,,,,,,,,,,,,,,space,20.187,,,,,,,,,,,,,,,,,,,,,,,,,,,,,,,,
,,15,001,2023-09-27_12h45.40.745,Experiment_Tuerk,2022.2.4,Win32,60.08171113,,,,,,,,,,,,,,,,,,,,,,,,,,,,,,,,,,,,,,,,,,,,,,,,,,,,,,,,,,,,,,,,,,,,,,,,,,,,,,,,,,,,,,,,,,,,,,,,,,,,,,,,,,,,,,,,,,,,,,,,,,,,,,,space,33.49,,,,,,,,,,,,,,,,,,,,,,,,,,,,,,
,,15,001,2023-09-27_12h45.40.745,Experiment_Tuerk,2022.2.4,Win32,60.08171113,,,,,,,,,,,,,,,,,,,,,,,,,,,,,,,,,,,,,,,,,,,,,,,,,,,,,,,,,,,,,,,,,,,,,,,,,,,,,,,,,,,,,,,,,,,,,,,,,,,,,,,,,,,,,,,,,,,,,,,,,,,,,,,,,space,2.4386,,,,,,,,,,,,,,,,,,,,,,,,,,,,
,,15,001,2023-09-27_12h45.40.745,Experiment_Tuerk,2022.2.4,Win32,60.08171113,,,,,,,,,,,,,,,,,,,,,,,,,,,,,,,,,,,,,,,,,,,,,,,,,,,,,,,,,,,,,,,,,,,,,,,,,,,,,,,,,,,,,,,,,,,,,,,,,,,,,,,,,,,,,,,,,,,,,,,,,,,,,,,,,,,space,6.8982,c,1,1.2839,,,0,0,0,0,1,1,Practice,Practice_N,city.jpg,waterfall.jpg,right,loss,c,Stimuli/Practice/Mango.jpg,1,1,neg,B,Sad.png,Neutral.png,
,,15,001,2023-09-27_12h45.40.745,Experiment_Tuerk,2022.2.4,Win32,60.08171113,,,,,,,,,,,,,,,,,,,,,,,,,,,,,,,,,,,,,,,,,,,,,,,,,,,,,,,,,,,,,,,,,,,,,,,,,,,,,,,,,,,,,,,,,,,,,,,,,,,,,,,,,,,,,,,,,,,,,,,,,,,,,,,,,,,,,c,1,2.0158,,,0,1,1,1,1,2,Practice,Practice_N,city.jpg,waterfall.jpg,right,loss,c,Stimuli/Practice/PenStand.jpg,2,1,neg,B,Sad.png,Neutral.png,
,,15,001,2023-09-27_12h45.40.745,Experiment_Tuerk,2022.2.4,Win32,60.08171113,,,,,,,,,,,,,,,,,,,,,,,,,,,,,,,,,,,,,,,,,,,,,,,,,,,,,,,,,,,,,,,,,,,,,,,,,,,,,,,,,,,,,,,,,,,,,,,,,,,,,,,,,,,,,,,,,,,,,,,,,,,,,,,,,,,,,m,0,1.1166,,,0,2,2,2,1,3,Practice,Practice_N,waterfall.jpg,city.jpg,left,loss,c,Stimuli/Practice/Coatrack.jpg,3,1,neg,B,Sad.png,Neutral.png,
,,15,001,2023-09-27_12h45.40.745,Experiment_Tuerk,2022.2.4,Win32,60.08171113,,,,,,,,,,,,,,,,,,,,,,,,,,,,,,,,,,,,,,,,,,,,,,,,,,,,,,,,,,,,,,,,,,,,,,,,,,,,,,,,,,,,,,,,,,,,,,,,,,,,,,,,,,,,,,,,,,,,,,,,,,,,,,,,,,,,,c,1,0.951,,,0,3,3,3,1,4,Practice,Practice_N,city.jpg,waterfall.jpg,right,loss,c,Stimuli/Practice/ChewingGum.jpg,4,1,neg,B,Sad.png,Neutral.png,
,,15,001,2023-09-27_12h45.40.745,Experiment_Tuerk,2022.2.4,Win32,60.08171113,,,,,,,,,,,,,,,,,,,,,,,,,,,,,,,,,,,,,,,,,,,,,,,,,,,,,,,,,,,,,,,,,,,,,,,,,,,,,,,,,,,,,,,,,,,,,,,,,,,,,,,,,,,,,,,,,,,,,,,,,,,,,,,,,,,,,m,1,1.0537,,,0,4,4,4,1,5,Practice,Practice_N,waterfall.jpg,city.jpg,right,nl,m,Stimuli/Practice/Gauge.jpg,5,1,neg,B,Sad.png,Neutral.png,
,,15,001,2023-09-27_12h45.40.745,Experiment_Tuerk,2022.2.4,Win32,60.08171113,,,,,,,,,,,,,,,,,,,,,,,,,,,,,,,,,,,,,,,,,,,,,,,,,,,,,,,,,,,,,,,,,,,,,,,,,,,,,,,,,,,,,,,,,,,,,,,,,,,,,,,,,,,,,,,,,,,,,,,,,,,,,,,,,,,,,m,1,0.8738,,,0,5,5,5,1,6,Practice,Practice_N,city.jpg,waterfall.jpg,left,loss,m,Stimuli/Practice/Canteen.jpg,6,0,neg,B,Sad.png,Neutral.png,
,,15,001,2023-09-27_12h45.40.745,Experiment_Tuerk,2022.2.4,Win32,60.08171113,,,,,,,,,,,,,,,,,,,,,,,,,,,,,,,,,,,,,,,,,,,,,,,,,,,,,,,,,,,,,,,,,,,,,,,,,,,,,,,,,,,,,,,,,,,,,,,,,,,,,,,,,,,,,,,,,,,,,,,,,,,,,,,,,,,,,c,0,2.0498,,,0,6,6,6,1,7,Practice,Practice_N,waterfall.jpg,city.jpg,right,nl,m,Stimuli/Practice/Golf_Bag.jpg,7,1,neg,B,Sad.png,Neutral.png,
,,15,001,2023-09-27_12h45.40.745,Experiment_Tuerk,2022.2.4,Win32,60.08171113,,,,,,,,,,,,,,,,,,,,,,,,,,,,,,,,,,,,,,,,,,,,,,,,,,,,,,,,,,,,,,,,,,,,,,,,,,,,,,,,,,,,,,,,,,,,,,,,,,,,,,,,,,,,,,,,,,,,,,,,,,,,,,,,,,,,,m,1,1.7834,,,0,7,7,7,1,8,Practice,Practice_N,waterfall.jpg,city.jpg,right,nl,m,Stimuli/Practice/Fork_Fondue.jpg,8,1,neg,B,Sad.png,Neutral.png,
,,15,001,2023-09-27_12h45.40.745,Experiment_Tuerk,2022.2.4,Win32,60.08171113,,,,,,,,,,,,,,,,,,,,,,,,,,,,,,,,,,,,,,,,,,,,,,,,,,,,,,,,,,,,,,,,,,,,,,,,,,,,,,,,,,,,,,,,,,,,,,,,,,,,,,,,,,,,,,,,,,,,,,,,,,,,,,,,,,,,,m,0,1.1497,,,0,8,8,8,1,9,Practice,Practice_N,city.jpg,waterfall.jpg,right,loss,c,Stimuli/Practice/Toy_BlocksMultiShape.jpg,9,1,neg,B,Sad.png,Neutral.png,
,,15,001,2023-09-27_12h45.40.745,Experiment_Tuerk,2022.2.4,Win32,60.08171113,,,,,,,,,,,,,,,,,,,,,,,,,,,,,,,,,,,,,,,,,,,,,,,,,,,,,,,,,,,,,,,,,,,,,,,,,,,,,,,,,,,,,,,,,,,,,,,,,,,,,,,,,,,,,,,,,,,,,,,,,,,,,,,,,,,,,m,1,1.8493,,,0,9,9,9,1,10,Practice,Practice_N,waterfall.jpg,city.jpg,right,nl,m,Stimuli/Practice/Garbage_GreenBin.jpg,10,1,neg,B,Sad.png,Neutral.png,
,,15,001,2023-09-27_12h45.40.745,Experiment_Tuerk,2022.2.4,Win32,60.08171113,,,,,,,,,,,,,,,,,,,,,,,,,,,,,,,,,,,,,,,,,,,,,,,,,,,,,,,,,,,,,,,,,,,,,,,,,,,,,,,,,,,,,,,,,,,,,,,,,,,,,,,,,,,,,,,,,,,,,,,,,,,,,,,,,,,,,m,1,1.1834,,,0,10,10,10,1,11,Practice,Practice_N,city.jpg,waterfall.jpg,left,nl,m,Stimuli/Practice/OnionRed.jpg,11,1,neg,B,Sad.png,Neutral.png,
,,15,001,2023-09-27_12h45.40.745,Experiment_Tuerk,2022.2.4,Win32,60.08171113,,,,,,,,,,,,,,,,,,,,,,,,,,,,,,,,,,,,,,,,,,,,,,,,,,,,,,,,,,,,,,,,,,,,,,,,,,,,,,,,,,,,,,,,,,,,,,,,,,,,,,,,,,,,,,,,,,,,,,,,,,,,,,,,,,,,,c,0,0.8002,,,0,11,11,11,1,12,Practice,Practice_N,city.jpg,waterfall.jpg,left,nl,m,Stimuli/Practice/Stovetop.jpg,12,1,neg,B,Sad.png,Neutral.png,
,,15,001,2023-09-27_12h45.40.745,Experiment_Tuerk,2022.2.4,Win32,60.08171113,,,,,,,,,,,,,,,,,,,,,,,,,,,,,,,,,,,,,,,,,,,,,,,,,,,,,,,,,,,,,,,,,,,,,,,,,,,,,,,,,,,,,,,,,,,,,,,,,,,,,,,,,,,,,,,,,,,,,,,,,,,,,,,,,,,,,m,1,1.3161,,,0,12,12,12,1,13,Practice,Practice_N,city.jpg,waterfall.jpg,left,nl,m,Stimuli/Practice/LeatherPuncherTool.jpg,13,1,neg,B,Sad.png,Neutral.png,
,,15,001,2023-09-27_12h45.40.745,Experiment_Tuerk,2022.2.4,Win32,60.08171113,,,,,,,,,,,,,,,,,,,,,,,,,,,,,,,,,,,,,,,,,,,,,,,,,,,,,,,,,,,,,,,,,,,,,,,,,,,,,,,,,,,,,,,,,,,,,,,,,,,,,,,,,,,,,,,,,,,,,,,,,,,,,,,,,,,,,c,1,1.4166,,,0,13,13,13,1,14,Practice,Practice_N,waterfall.jpg,city.jpg,left,nl,c,Stimuli/Practice/FireAlarm.jpg,14,0,neg,B,Sad.png,Neutral.png,
,,15,001,2023-09-27_12h45.40.745,Experiment_Tuerk,2022.2.4,Win32,60.08171113,,,,,,,,,,,,,,,,,,,,,,,,,,,,,,,,,,,,,,,,,,,,,,,,,,,,,,,,,,,,,,,,,,,,,,,,,,,,,,,,,,,,,,,,,,,,,,,,,,,,,,,,,,,,,,,,,,,,,,,,,,,,,,,,,,,,,m,0,0.9588,,,0,14,14,14,1,15,Practice,Practice_N,city.jpg,waterfall.jpg,right,loss,c,Stimuli/Practice/Shoes_Snowboarding.jpg,15,1,neg,B,Sad.png,Neutral.png,
,,15,001,2023-09-27_12h45.40.745,Experiment_Tuerk,2022.2.4,Win32,60.08171113,,,,,,,,,,,,,,,,,,,,,,,,,,,,,,,,,,,,,,,,,,,,,,,,,,,,,,,,,,,,,,,,,,,,,,,,,,,,,,,,,,,,,,,,,,,,,,,,,,,,,,,,,,,,,,,,,,,,,,,,,,,,,,,,,,,,,m,0,1.9329,,,0,15,15,15,1,16,Practice,Practice_N,waterfall.jpg,city.jpg,left,nl,c,Stimuli/Practice/CarJack.jpg,16,0,neg,B,Sad.png,Neutral.png,
,,15,001,2023-09-27_12h45.40.745,Experiment_Tuerk,2022.2.4,Win32,60.08171113,,,,,,,,,,,,,,,,,,,,,,,,,,,,,,,,,,,,,,,,,,,,,,,,,,,,,,,,,,,,,,,,,,,,,,,,,,,,,,,,,,,,,,,,,,,,,,,,,,,,,,,,,,,,,,,,,,,,,,,,,,,,,,,,,,,,,m,0,1.8914,,,0,16,16,16,1,17,Practice,Practice_N,city.jpg,waterfall.jpg,right,nl,c,Stimuli/Practice/Pen_Calligraphy.jpg,17,0,neg,B,Sad.png,Neutral.png,
,,15,001,2023-09-27_12h45.40.745,Experiment_Tuerk,2022.2.4,Win32,60.08171113,,,,,,,,,,,,,,,,,,,,,,,,,,,,,,,,,,,,,,,,,,,,,,,,,,,,,,,,,,,,,,,,,,,,,,,,,,,,,,,,,,,,,,,,,,,,,,,,,,,,,,,,,,,,,,,,,,,,,,,,,,,,,,,,,,,,,c,1,1.733,,,0,17,17,17,1,18,Practice,Practice_N,waterfall.jpg,city.jpg,left,loss,c,Stimuli/Practice/Container_Tupperware.jpg,18,1,neg,B,Sad.png,Neutral.png,
,,15,001,2023-09-27_12h45.40.745,Experiment_Tuerk,2022.2.4,Win32,60.08171113,,,,,,,,,,,,,,,,,,,,,,,,,,,,,,,,,,,,,,,,,,,,,,,,,,,,,,,,,,,,,,,,,,,,,,,,,,,,,,,,,,,,,,,,,,,,,,,,,,,,,,,,,,,,,,,,,,,,,,,,,,,,,,,,,,,,,c,1,1.6364,,,0,18,18,18,1,19,Practice,Practice_N,waterfall.jpg,city.jpg,left,loss,c,Stimuli/Practice/ClothCoaster.jpg,19,1,neg,B,Sad.png,Neutral.png,
,,15,001,2023-09-27_12h45.40.745,Experiment_Tuerk,2022.2.4,Win32,60.08171113,,,,,,,,,,,,,,,,,,,,,,,,,,,,,,,,,,,,,,,,,,,,,,,,,,,,,,,,,,,,,,,,,,,,,,,,,,,,,,,,,,,,,,,,,,,,,,,,,,,,,,,,,,,,,,,,,,,,,,,,,,,,,,,,,,,,,m,1,1.0511,,,0,19,19,19,1,20,Practice,Practice_N,city.jpg,waterfall.jpg,left,nl,m,Stimuli/Practice/Kneepad.jpg,20,1,neg,B,Sad.png,Neutral.png,
,,15,001,2023-09-27_12h45.40.745,Experiment_Tuerk,2022.2.4,Win32,60.08171113,,,,,,,,,,,,,,,,,,,,,,,,,,,,,,,,,,,,,,,,,,,,,,,,,,,,,,,,,,,,,,,,,,,,,,,,,,,,,,,,,,,,,,,,,,,,,,,,,,,,,,,,,,,,,,,,,,,,,,,,,,,,,,,,,,,,,c,0,1.6173,,,0,20,20,20,1,21,Practice,Practice_N,waterfall.jpg,city.jpg,right,loss,m,Stimuli/Practice/Dill.jpg,21,0,neg,B,Sad.png,Neutral.png,
,,15,001,2023-09-27_12h45.40.745,Experiment_Tuerk,2022.2.4,Win32,60.08171113,,,,,,,,,,,,,,,,,,,,,,,,,,,,,,,,,,,,,,,,,,,,,,,,,,,,,,,,,,,,,,,,,,,,,,,,,,,,,,,,,,,,,,,,,,,,,,,,,,,,,,,,,,,,,,,,,,,,,,,,,,,,,,,,,,,,,m,1,1.5498,,,0,21,21,21,1,22,Practice,Practice_N,city.jpg,waterfall.jpg,left,nl,m,Stimuli/Practice/Clock_Radio.jpg,22,1,neg,B,Sad.png,Neutral.png,
,,15,001,2023-09-27_12h45.40.745,Experiment_Tuerk,2022.2.4,Win32,60.08171113,,,,,,,,,,,,,,,,,,,,,,,,,,,,,,,,,,,,,,,,,,,,,,,,,,,,,,,,,,,,,,,,,,,,,,,,,,,,,,,,,,,,,,,,,,,,,,,,,,,,,,,,,,,,,,,,,,,,,,,,,,,,,,,,,,,,,c,0,1.8502,,,0,22,22,22,1,23,Practice,Practice_N,city.jpg,waterfall.jpg,left,nl,m,Stimuli/Practice/Pajamas.jpg,23,1,neg,B,Sad.png,Neutral.png,
,,15,001,2023-09-27_12h45.40.745,Experiment_Tuerk,2022.2.4,Win32,60.08171113,,,,,,,,,,,,,,,,,,,,,,,,,,,,,,,,,,,,,,,,,,,,,,,,,,,,,,,,,,,,,,,,,,,,,,,,,,,,,,,,,,,,,,,,,,,,,,,,,,,,,,,,,,,,,,,,,,,,,,,,,,,,,,,,,,,,,m,0,1.7663,,,0,23,23,23,1,24,Practice,Practice_N,city.jpg,waterfall.jpg,right,loss,c,Stimuli/Practice/SoapBottle.jpg,24,1,neg,B,Sad.png,Neutral.png,
,,15,001,2023-09-27_12h45.40.745,Experiment_Tuerk,2022.2.4,Win32,60.08171113,,,,,,,,,,,,,,,,,,,,,,,,,,,,,,,,,,,,,,,,,,,,,,,,,,,,,,,,,,,,,,,,,,,,,,,,,,,,,,,,,,,,,,,,,,,,,,,,,,,,,,,,,,,,,,,,,,,,,,,,,,,,,,,,,,,,,c,1,0.301,,,0,24,24,24,1,25,Practice,Practice_N,waterfall.jpg,city.jpg,left,loss,c,Stimuli/Practice/ChessPiece_Bishop.jpg,25,1,neg,B,Sad.png,Neutral.png,
,,15,001,2023-09-27_12h45.40.745,Experiment_Tuerk,2022.2.4,Win32,60.08171113,,,,,,,,,,,,,,,,,,,,,,,,,,,,,,,,,,,,,,,,,,,,,,,,,,,,,,,,,,,,,,,,,,,,,,,,,,,,,,,,,,,,,,,,,,,,,,,,,,,,,,,,,,,,,,,,,,,,,,,,,,,,,,,,,,,,,m,0,0.4007,,,0,25,25,25,1,26,Practice,Practice_N,city.jpg,waterfall.jpg,right,loss,c,Stimuli/Practice/ToothbrushHolder.jpg,26,1,neg,B,Sad.png,Neutral.png,
,,15,001,2023-09-27_12h45.40.745,Experiment_Tuerk,2022.2.4,Win32,60.08171113,,,,,,,,,,,,,,,,,,,,,,,,,,,,,,,,,,,,,,,,,,,,,,,,,,,,,,,,,,,,,,,,,,,,,,,,,,,,,,,,,,,,,,,,,,,,,,,,,,,,,,,,,,,,,,,,,,,,,,,,,,,,,,,,,,,,,m,0,1.9158,,,0,26,26,26,1,27,Practice,Practice_N,waterfall.jpg,city.jpg,left,loss,c,Stimuli/Practice/BicycleBrake.jpg,27,1,neg,B,Sad.png,Neutral.png,
,,15,001,2023-09-27_12h45.40.745,Experiment_Tuerk,2022.2.4,Win32,60.08171113,,,,,,,,,,,,,,,,,,,,,,,,,,,,,,,,,,,,,,,,,,,,,,,,,,,,,,,,,,,,,,,,,,,,,,,,,,,,,,,,,,,,,,,,,,,,,,,,,,,,,,,,,,,,,,,,,,,,,,,,,,,,,,,,,,,,,c,0,0.9754,,,0,27,27,27,1,28,Practice,Practice_N,waterfall.jpg,city.jpg,right,nl,m,Stimuli/Practice/Grill_Electric.jpg,28,1,neg,B,Sad.png,Neutral.png,
,,15,001,2023-09-27_12h45.40.745,Experiment_Tuerk,2022.2.4,Win32,60.08171113,,,,,,,,,,,,,,,,,,,,,,,,,,,,,,,,,,,,,,,,,,,,,,,,,,,,,,,,,,,,,,,,,,,,,,,,,,,,,,,,,,,,,,,,,,,,,,,,,,,,,,,,,,,,,,,,,,,,,,,,,,,,,,,,,,,,,m,1,1.5402,,,0,28,28,28,1,29,Practice,Practice_N,city.jpg,waterfall.jpg,left,loss,m,Stimuli/Practice/Heater_Outdoor.jpg,29,0,neg,B,Sad.png,Neutral.png,
,,15,001,2023-09-27_12h45.40.745,Experiment_Tuerk,2022.2.4,Win32,60.08171113,,,,,,,,,,,,,,,,,,,,,,,,,,,,,,,,,,,,,,,,,,,,,,,,,,,,,,,,,,,,,,,,,,,,,,,,,,,,,,,,,,,,,,,,,,,,,,,,,,,,,,,,,,,,,,,,,,,,,,,,,,,,,,,,,,,,,m,1,0.7665,,,0,29,29,29,1,30,Practice,Practice_N,waterfall.jpg,city.jpg,right,nl,m,Stimuli/Practice/CrepeMaker.jpg,30,1,neg,B,Sad.png,Neutral.png,
,,15,001,2023-09-27_12h45.40.745,Experiment_Tuerk,2022.2.4,Win32,60.08171113,,,,,,,,,,,,,,,,,,,,,,,,,,,,,,,,,,,,,,,,,,,,,,,,,,,,,,,,,,,,,,,,,,,,,,,,,,,,,,,,,,,,,,,,,,,,,,,,,,,,,,,,,,,,,,,,,,,,,,,,,,,,,,,,,,,,,c,1,1.1348,,,0,30,30,30,1,31,Practice,Practice_N,waterfall.jpg,city.jpg,left,loss,c,Stimuli/Practice/BicyclePedal.jpg,31,1,neg,B,Sad.png,Neutral.png,
,,15,001,2023-09-27_12h45.40.745,Experiment_Tuerk,2022.2.4,Win32,60.08171113,,,,,,,,,,,,,,,,,,,,,,,,,,,,,,,,,,,,,,,,,,,,,,,,,,,,,,,,,,,,,,,,,,,,,,,,,,,,,,,,,,,,,,,,,,,,,,,,,,,,,,,,,,,,,,,,,,,,,,,,,,,,,,,,,,,,,c,0,2.0164,space,,0,31,31,31,1,32,Practice,Practice_N,waterfall.jpg,city.jpg,right,nl,m,Stimuli/Practice/GrillRack.jpg,32,1,neg,B,Sad.png,Neutral.png,11.5628
,,15,001,2023-09-27_12h45.40.745,Experiment_Tuerk,2022.2.4,Win32,60.08171113,,,,,,,,,,,,,,,,,,,,,,,,,,,,,,,,,,,,,,,,,,,,,,,,,,,,,,,,,,,,,,,,,,,,,,,,,,,,,,,,,,,,,,,,,,,,,,,,,,,,,,,,,,,,,,,,,,,,,,,,,,,,,,,,,,,,,c,1,1.3998,,,1,0,32,0,1,1,Practice,Practice_N,city.jpg,waterfall.jpg,right,loss,c,Stimuli/Practice/Mango.jpg,1,1,neg,B,Sad.png,Neutral.png,
,,15,001,2023-09-27_12h45.40.745,Experiment_Tuerk,2022.2.4,Win32,60.08171113,,,,,,,,,,,,,,,,,,,,,,,,,,,,,,,,,,,,,,,,,,,,,,,,,,,,,,,,,,,,,,,,,,,,,,,,,,,,,,,,,,,,,,,,,,,,,,,,,,,,,,,,,,,,,,,,,,,,,,,,,,,,,,,,,,,,,c,1,1.4187,,,1,1,33,1,1,2,Practice,Practice_N,city.jpg,waterfall.jpg,right,loss,c,Stimuli/Practice/PenStand.jpg,2,1,neg,B,Sad.png,Neutral.png,
,,15,001,2023-09-27_12h45.40.745,Experiment_Tuerk,2022.2.4,Win32,60.08171113,,,,,,,,,,,,,,,,,,,,,,,,,,,,,,,,,,,,,,,,,,,,,,,,,,,,,,,,,,,,,,,,,,,,,,,,,,,,,,,,,,,,,,,,,,,,,,,,,,,,,,,,,,,,,,,,,,,,,,,,,,,,,,,,,,,,,c,1,0.6683,,,1,2,34,2,1,3,Practice,Practice_N,waterfall.jpg,city.jpg,left,loss,c,Stimuli/Practice/Coatrack.jpg,3,1,neg,B,Sad.png,Neutral.png,
,,15,001,2023-09-27_12h45.40.745,Experiment_Tuerk,2022.2.4,Win32,60.08171113,,,,,,,,,,,,,,,,,,,,,,,,,,,,,,,,,,,,,,,,,,,,,,,,,,,,,,,,,,,,,,,,,,,,,,,,,,,,,,,,,,,,,,,,,,,,,,,,,,,,,,,,,,,,,,,,,,,,,,,,,,,,,,,,,,,,,c,1,1.0175,,,1,3,35,3,1,4,Practice,Practice_N,city.jpg,waterfall.jpg,right,loss,c,Stimuli/Practice/ChewingGum.jpg,4,1,neg,B,Sad.png,Neutral.png,
,,15,001,2023-09-27_12h45.40.745,Experiment_Tuerk,2022.2.4,Win32,60.08171113,,,,,,,,,,,,,,,,,,,,,,,,,,,,,,,,,,,,,,,,,,,,,,,,,,,,,,,,,,,,,,,,,,,,,,,,,,,,,,,,,,,,,,,,,,,,,,,,,,,,,,,,,,,,,,,,,,,,,,,,,,,,,,,,,,,,,c,0,1.9667,,,1,4,36,4,1,5,Practice,Practice_N,waterfall.jpg,city.jpg,right,nl,m,Stimuli/Practice/Gauge.jpg,5,1,neg,B,Sad.png,Neutral.png,
,,15,001,2023-09-27_12h45.40.745,Experiment_Tuerk,2022.2.4,Win32,60.08171113,,,,,,,,,,,,,,,,,,,,,,,,,,,,,,,,,,,,,,,,,,,,,,,,,,,,,,,,,,,,,,,,,,,,,,,,,,,,,,,,,,,,,,,,,,,,,,,,,,,,,,,,,,,,,,,,,,,,,,,,,,,,,,,,,,,,,m,1,0.591,,,1,5,37,5,1,6,Practice,Practice_N,city.jpg,waterfall.jpg,left,loss,m,Stimuli/Practice/Canteen.jpg,6,0,neg,B,Sad.png,Neutral.png,
,,15,001,2023-09-27_12h45.40.745,Experiment_Tuerk,2022.2.4,Win32,60.08171113,,,,,,,,,,,,,,,,,,,,,,,,,,,,,,,,,,,,,,,,,,,,,,,,,,,,,,,,,,,,,,,,,,,,,,,,,,,,,,,,,,,,,,,,,,,,,,,,,,,,,,,,,,,,,,,,,,,,,,,,,,,,,,,,,,,,,c,0,1.2004,,,1,6,38,6,1,7,Practice,Practice_N,waterfall.jpg,city.jpg,right,nl,m,Stimuli/Practice/Golf_Bag.jpg,7,1,neg,B,Sad.png,Neutral.png,
,,15,001,2023-09-27_12h45.40.745,Experiment_Tuerk,2022.2.4,Win32,60.08171113,,,,,,,,,,,,,,,,,,,,,,,,,,,,,,,,,,,,,,,,,,,,,,,,,,,,,,,,,,,,,,,,,,,,,,,,,,,,,,,,,,,,,,,,,,,,,,,,,,,,,,,,,,,,,,,,,,,,,,,,,,,,,,,,,,,,,c,0,1.002,,,1,7,39,7,1,8,Practice,Practice_N,waterfall.jpg,city.jpg,right,nl,m,Stimuli/Practice/Fork_Fondue.jpg,8,1,neg,B,Sad.png,Neutral.png,
,,15,001,2023-09-27_12h45.40.745,Experiment_Tuerk,2022.2.4,Win32,60.08171113,,,,,,,,,,,,,,,,,,,,,,,,,,,,,,,,,,,,,,,,,,,,,,,,,,,,,,,,,,,,,,,,,,,,,,,,,,,,,,,,,,,,,,,,,,,,,,,,,,,,,,,,,,,,,,,,,,,,,,,,,,,,,,,,,,,,,c,1,1.2339,,,1,8,40,8,1,9,Practice,Practice_N,city.jpg,waterfall.jpg,right,loss,c,Stimuli/Practice/Toy_BlocksMultiShape.jpg,9,1,neg,B,Sad.png,Neutral.png,
,,15,001,2023-09-27_12h45.40.745,Experiment_Tuerk,2022.2.4,Win32,60.08171113,,,,,,,,,,,,,,,,,,,,,,,,,,,,,,,,,,,,,,,,,,,,,,,,,,,,,,,,,,,,,,,,,,,,,,,,,,,,,,,,,,,,,,,,,,,,,,,,,,,,,,,,,,,,,,,,,,,,,,,,,,,,,,,,,,,,,c,0,1.1227,,,1,9,41,9,1,10,Practice,Practice_N,waterfall.jpg,city.jpg,right,nl,m,Stimuli/Practice/Garbage_GreenBin.jpg,10,1,neg,B,Sad.png,Neutral.png,
,,15,001,2023-09-27_12h45.40.745,Experiment_Tuerk,2022.2.4,Win32,60.08171113,,,,,,,,,,,,,,,,,,,,,,,,,,,,,,,,,,,,,,,,,,,,,,,,,,,,,,,,,,,,,,,,,,,,,,,,,,,,,,,,,,,,,,,,,,,,,,,,,,,,,,,,,,,,,,,,,,,,,,,,,,,,,,,,,,,,,m,1,1.9579,,,1,10,42,10,1,11,Practice,Practice_N,city.jpg,waterfall.jpg,left,nl,m,Stimuli/Practice/OnionRed.jpg,11,1,neg,B,Sad.png,Neutral.png,
,,15,001,2023-09-27_12h45.40.745,Experiment_Tuerk,2022.2.4,Win32,60.08171113,,,,,,,,,,,,,,,,,,,,,,,,,,,,,,,,,,,,,,,,,,,,,,,,,,,,,,,,,,,,,,,,,,,,,,,,,,,,,,,,,,,,,,,,,,,,,,,,,,,,,,,,,,,,,,,,,,,,,,,,,,,,,,,,,,,,,m,1,0.7688,,,1,11,43,11,1,12,Practice,Practice_N,city.jpg,waterfall.jpg,left,nl,m,Stimuli/Practice/Stovetop.jpg,12,1,neg,B,Sad.png,Neutral.png,
,,15,001,2023-09-27_12h45.40.745,Experiment_Tuerk,2022.2.4,Win32,60.08171113,,,,,,,,,,,,,,,,,,,,,,,,,,,,,,,,,,,,,,,,,,,,,,,,,,,,,,,,,,,,,,,,,,,,,,,,,,,,,,,,,,,,,,,,,,,,,,,,,,,,,,,,,,,,,,,,,,,,,,,,,,,,,,,,,,,,,m,1,0.3179,,,1,12,44,12,1,13,Practice,Practice_N,city.jpg,waterfall.jpg,left,nl,m,Stimuli/Practice/LeatherPuncherTool.jpg,13,1,neg,B,Sad.png,Neutral.png,
,,15,001,2023-09-27_12h45.40.745,Experiment_Tuerk,2022.2.4,Win32,60.08171113,,,,,,,,,,,,,,,,,,,,,,,,,,,,,,,,,,,,,,,,,,,,,,,,,,,,,,,,,,,,,,,,,,,,,,,,,,,,,,,,,,,,,,,,,,,,,,,,,,,,,,,,,,,,,,,,,,,,,,,,,,,,,,,,,,,,,c,1,0.9034,,,1,13,45,13,1,14,Practice,Practice_N,waterfall.jpg,city.jpg,left,nl,c,Stimuli/Practice/FireAlarm.jpg,14,0,neg,B,Sad.png,Neutral.png,
,,15,001,2023-09-27_12h45.40.745,Experiment_Tuerk,2022.2.4,Win32,60.08171113,,,,,,,,,,,,,,,,,,,,,,,,,,,,,,,,,,,,,,,,,,,,,,,,,,,,,,,,,,,,,,,,,,,,,,,,,,,,,,,,,,,,,,,,,,,,,,,,,,,,,,,,,,,,,,,,,,,,,,,,,,,,,,,,,,,,,c,1,0.3581,,,1,14,46,14,1,15,Practice,Practice_N,city.jpg,waterfall.jpg,right,loss,c,Stimuli/Practice/Shoes_Snowboarding.jpg,15,1,neg,B,Sad.png,Neutral.png,
,,15,001,2023-09-27_12h45.40.745,Experiment_Tuerk,2022.2.4,Win32,60.08171113,,,,,,,,,,,,,,,,,,,,,,,,,,,,,,,,,,,,,,,,,,,,,,,,,,,,,,,,,,,,,,,,,,,,,,,,,,,,,,,,,,,,,,,,,,,,,,,,,,,,,,,,,,,,,,,,,,,,,,,,,,,,,,,,,,,,,c,1,0.4182,,,1,15,47,15,1,16,Practice,Practice_N,waterfall.jpg,city.jpg,left,nl,c,Stimuli/Practice/CarJack.jpg,16,0,neg,B,Sad.png,Neutral.png,
,,15,001,2023-09-27_12h45.40.745,Experiment_Tuerk,2022.2.4,Win32,60.08171113,,,,,,,,,,,,,,,,,,,,,,,,,,,,,,,,,,,,,,,,,,,,,,,,,,,,,,,,,,,,,,,,,,,,,,,,,,,,,,,,,,,,,,,,,,,,,,,,,,,,,,,,,,,,,,,,,,,,,,,,,,,,,,,,,,,,,m,0,0.3675,,,1,16,48,16,1,17,Practice,Practice_N,city.jpg,waterfall.jpg,right,nl,c,Stimuli/Practice/Pen_Calligraphy.jpg,17,0,neg,B,Sad.png,Neutral.png,
,,15,001,2023-09-27_12h45.40.745,Experiment_Tuerk,2022.2.4,Win32,60.08171113,,,,,,,,,,,,,,,,,,,,,,,,,,,,,,,,,,,,,,,,,,,,,,,,,,,,,,,,,,,,,,,,,,,,,,,,,,,,,,,,,,,,,,,,,,,,,,,,,,,,,,,,,,,,,,,,,,,,,,,,,,,,,,,,,,,,,c,1,0.6171,,,1,17,49,17,1,18,Practice,Practice_N,waterfall.jpg,city.jpg,left,loss,c,Stimuli/Practice/Container_Tupperware.jpg,18,1,neg,B,Sad.png,Neutral.png,
,,15,001,2023-09-27_12h45.40.745,Experiment_Tuerk,2022.2.4,Win32,60.08171113,,,,,,,,,,,,,,,,,,,,,,,,,,,,,,,,,,,,,,,,,,,,,,,,,,,,,,,,,,,,,,,,,,,,,,,,,,,,,,,,,,,,,,,,,,,,,,,,,,,,,,,,,,,,,,,,,,,,,,,,,,,,,,,,,,,,,c,1,0.4514,,,1,18,50,18,1,19,Practice,Practice_N,waterfall.jpg,city.jpg,left,loss,c,Stimuli/Practice/ClothCoaster.jpg,19,1,neg,B,Sad.png,Neutral.png,
,,15,001,2023-09-27_12h45.40.745,Experiment_Tuerk,2022.2.4,Win32,60.08171113,,,,,,,,,,,,,,,,,,,,,,,,,,,,,,,,,,,,,,,,,,,,,,,,,,,,,,,,,,,,,,,,,,,,,,,,,,,,,,,,,,,,,,,,,,,,,,,,,,,,,,,,,,,,,,,,,,,,,,,,,,,,,,,,,,,,,m,1,1.3504,,,1,19,51,19,1,20,Practice,Practice_N,city.jpg,waterfall.jpg,left,nl,m,Stimuli/Practice/Kneepad.jpg,20,1,neg,B,Sad.png,Neutral.png,
,,15,001,2023-09-27_12h45.40.745,Experiment_Tuerk,2022.2.4,Win32,60.08171113,,,,,,,,,,,,,,,,,,,,,,,,,,,,,,,,,,,,,,,,,,,,,,,,,,,,,,,,,,,,,,,,,,,,,,,,,,,,,,,,,,,,,,,,,,,,,,,,,,,,,,,,,,,,,,,,,,,,,,,,,,,,,,,,,,,,,c,0,0.4515,,,1,20,52,20,1,21,Practice,Practice_N,waterfall.jpg,city.jpg,right,loss,m,Stimuli/Practice/Dill.jpg,21,0,neg,B,Sad.png,Neutral.png,
,,15,001,2023-09-27_12h45.40.745,Experiment_Tuerk,2022.2.4,Win32,60.08171113,,,,,,,,,,,,,,,,,,,,,,,,,,,,,,,,,,,,,,,,,,,,,,,,,,,,,,,,,,,,,,,,,,,,,,,,,,,,,,,,,,,,,,,,,,,,,,,,,,,,,,,,,,,,,,,,,,,,,,,,,,,,,,,,,,,,,c,0,0.9344,,,1,21,53,21,1,22,Practice,Practice_N,city.jpg,waterfall.jpg,left,nl,m,Stimuli/Practice/Clock_Radio.jpg,22,1,neg,B,Sad.png,Neutral.png,
,,15,001,2023-09-27_12h45.40.745,Experiment_Tuerk,2022.2.4,Win32,60.08171113,,,,,,,,,,,,,,,,,,,,,,,,,,,,,,,,,,,,,,,,,,,,,,,,,,,,,,,,,,,,,,,,,,,,,,,,,,,,,,,,,,,,,,,,,,,,,,,,,,,,,,,,,,,,,,,,,,,,,,,,,,,,,,,,,,,,,c,0,0.5504,,,1,22,54,22,1,23,Practice,Practice_N,city.jpg,waterfall.jpg,left,nl,m,Stimuli/Practice/Pajamas.jpg,23,1,neg,B,Sad.png,Neutral.png,
,,15,001,2023-09-27_12h45.40.745,Experiment_Tuerk,2022.2.4,Win32,60.08171113,,,,,,,,,,,,,,,,,,,,,,,,,,,,,,,,,,,,,,,,,,,,,,,,,,,,,,,,,,,,,,,,,,,,,,,,,,,,,,,,,,,,,,,,,,,,,,,,,,,,,,,,,,,,,,,,,,,,,,,,,,,,,,,,,,,,,m,0,0.5011,,,1,23,55,23,1,24,Practice,Practice_N,city.jpg,waterfall.jpg,right,loss,c,Stimuli/Practice/SoapBottle.jpg,24,1,neg,B,Sad.png,Neutral.png,
,,15,001,2023-09-27_12h45.40.745,Experiment_Tuerk,2022.2.4,Win32,60.08171113,,,,,,,,,,,,,,,,,,,,,,,,,,,,,,,,,,,,,,,,,,,,,,,,,,,,,,,,,,,,,,,,,,,,,,,,,,,,,,,,,,,,,,,,,,,,,,,,,,,,,,,,,,,,,,,,,,,,,,,,,,,,,,,,,,,,,c,1,0.6012,,,1,24,56,24,1,25,Practice,Practice_N,waterfall.jpg,city.jpg,left,loss,c,Stimuli/Practice/ChessPiece_Bishop.jpg,25,1,neg,B,Sad.png,Neutral.png,
,,15,001,2023-09-27_12h45.40.745,Experiment_Tuerk,2022.2.4,Win32,60.08171113,,,,,,,,,,,,,,,,,,,,,,,,,,,,,,,,,,,,,,,,,,,,,,,,,,,,,,,,,,,,,,,,,,,,,,,,,,,,,,,,,,,,,,,,,,,,,,,,,,,,,,,,,,,,,,,,,,,,,,,,,,,,,,,,,,,,,c,1,0.2361,,,1,25,57,25,1,26,Practice,Practice_N,city.jpg,waterfall.jpg,right,loss,c,Stimuli/Practice/ToothbrushHolder.jpg,26,1,neg,B,Sad.png,Neutral.png,
,,15,001,2023-09-27_12h45.40.745,Experiment_Tuerk,2022.2.4,Win32,60.08171113,,,,,,,,,,,,,,,,,,,,,,,,,,,,,,,,,,,,,,,,,,,,,,,,,,,,,,,,,,,,,,,,,,,,,,,,,,,,,,,,,,,,,,,,,,,,,,,,,,,,,,,,,,,,,,,,,,,,,,,,,,,,,,,,,,,,,c,1,0.6506,,,1,26,58,26,1,27,Practice,Practice_N,waterfall.jpg,city.jpg,left,loss,c,Stimuli/Practice/BicycleBrake.jpg,27,1,neg,B,Sad.png,Neutral.png,
,,15,001,2023-09-27_12h45.40.745,Experiment_Tuerk,2022.2.4,Win32,60.08171113,,,,,,,,,,,,,,,,,,,,,,,,,,,,,,,,,,,,,,,,,,,,,,,,,,,,,,,,,,,,,,,,,,,,,,,,,,,,,,,,,,,,,,,,,,,,,,,,,,,,,,,,,,,,,,,,,,,,,,,,,,,,,,,,,,,,,m,1,0.5514,,,1,27,59,27,1,28,Practice,Practice_N,waterfall.jpg,city.jpg,right,nl,m,Stimuli/Practice/Grill_Electric.jpg,28,1,neg,B,Sad.png,Neutral.png,
,,15,001,2023-09-27_12h45.40.745,Experiment_Tuerk,2022.2.4,Win32,60.08171113,,,,,,,,,,,,,,,,,,,,,,,,,,,,,,,,,,,,,,,,,,,,,,,,,,,,,,,,,,,,,,,,,,,,,,,,,,,,,,,,,,,,,,,,,,,,,,,,,,,,,,,,,,,,,,,,,,,,,,,,,,,,,,,,,,,,,m,1,0.3173,,,1,28,60,28,1,29,Practice,Practice_N,city.jpg,waterfall.jpg,left,loss,m,Stimuli/Practice/Heater_Outdoor.jpg,29,0,neg,B,Sad.png,Neutral.png,
,,15,001,2023-09-27_12h45.40.745,Experiment_Tuerk,2022.2.4,Win32,60.08171113,,,,,,,,,,,,,,,,,,,,,,,,,,,,,,,,,,,,,,,,,,,,,,,,,,,,,,,,,,,,,,,,,,,,,,,,,,,,,,,,,,,,,,,,,,,,,,,,,,,,,,,,,,,,,,,,,,,,,,,,,,,,,,,,,,,,,m,1,0.0518,,,1,29,61,29,1,30,Practice,Practice_N,waterfall.jpg,city.jpg,right,nl,m,Stimuli/Practice/CrepeMaker.jpg,30,1,neg,B,Sad.png,Neutral.png,
,,15,001,2023-09-27_12h45.40.745,Experiment_Tuerk,2022.2.4,Win32,60.08171113,,,,,,,,,,,,,,,,,,,,,,,,,,,,,,,,,,,,,,,,,,,,,,,,,,,,,,,,,,,,,,,,,,,,,,,,,,,,,,,,,,,,,,,,,,,,,,,,,,,,,,,,,,,,,,,,,,,,,,,,,,,,,,,,,,,,,m,0,0.2185,,,1,30,62,30,1,31,Practice,Practice_N,waterfall.jpg,city.jpg,left,loss,c,Stimuli/Practice/BicyclePedal.jpg,31,1,neg,B,Sad.png,Neutral.png,
